"Memorable","Memorable_1","Repetition","acc","accuracy","average_response_time","avg_rt","background","canvas_backend","clock_backend","color_backend","correct","correct_instruction_2_sketchpad","correct_instructions_sketchpad","correct_keypress_practice_sketchpad","correct_new_1_sketchpad","correct_new_3_keyboard_response","correct_trial_keyboard_response","correct_trigger_scanner_keyboard_response","count_ISI_sketchpad","count_Sample_interval_sketchpad","count_baseline_block_sketchpad","count_block1_loop","count_block2_loop","count_block3_loop","count_block4_loop","count_block5_loop","count_end_of_practice_sketchpad","count_end_sketchpad","count_experiment","count_filler_quick_response_sketchpad","count_fixation_sketchpad","count_instruction_2_sketchpad","count_instructions_sketchpad","count_keypress_practice_sketchpad","count_new_1_sketchpad","count_new_2_sketchpad","count_new_3_keyboard_response","count_new_3_sketchpad","count_new_4_sketchpad","count_new_5_sketchpad","count_new_7_sketchpad","count_new_8_sketchpad","count_new_logger","count_practice_2_loop","count_practice_sequence","count_response_sketchpad","count_trial_keyboard_response","count_trial_sequence","count_trigger_scanner_keyboard_response","count_waiting_scanner_sketchpad","datetime","description","disable_garbage_collection","experiment_file","experiment_path","font_bold","font_family","font_italic","font_size","font_underline","foreground","form_clicks","fullscreen","height","image","interval","keyboard_backend","live_row","live_row_block1_loop","live_row_practice_2_loop","logfile","mouse_backend","opensesame_codename","opensesame_version","probe","repeat_cycle","response","response_instruction_2_sketchpad","response_instructions_sketchpad","response_keypress_practice_sketchpad","response_new_1_sketchpad","response_new_3_keyboard_response","response_new_5_sketchpad","response_time","response_time_instruction_2_sketchpad","response_time_instructions_sketchpad","response_time_keypress_practice_sketchpad","response_time_new_1_sketchpad","response_time_new_3_keyboard_response","response_time_new_5_sketchpad","response_time_trial_keyboard_response","response_time_trigger_scanner_keyboard_response","response_trial_keyboard_response","response_trigger_scanner_keyboard_response","round_decimals","sampler_backend","sound_buf_size","sound_channels","sound_freq","sound_sample_size","start","subject_nr","subject_parity","time_ISI_sketchpad","time_Sample_interval_sketchpad","time_baseline_block_sketchpad","time_block1_loop","time_block2_loop","time_block3_loop","time_block4_loop","time_block5_loop","time_end_of_practice_sketchpad","time_end_sketchpad","time_experiment","time_filler_quick_response_sketchpad","time_fixation_sketchpad","time_instruction_2_sketchpad","time_instructions_sketchpad","time_keypress_practice_sketchpad","time_new_1_sketchpad","time_new_2_sketchpad","time_new_3_keyboard_response","time_new_3_sketchpad","time_new_4_sketchpad","time_new_5_sketchpad","time_new_7_sketchpad","time_new_8_sketchpad","time_new_logger","time_practice_2_loop","time_practice_sequence","time_response_sketchpad","time_trial_keyboard_response","time_trial_sequence","time_trigger_scanner_keyboard_response","time_waiting_scanner_sketchpad","title","total_correct","total_response_time","total_responses","uniform_coordinates","width"
"1","NA","1","undefined","undefined","2706.5137416684593","2706.5137416684593","#ADADAD","psycho","psycho","psycho","undefined","undefined","undefined","undefined","undefined","undefined","undefined","undefined","0","0","5","0","0","0","0","0","0","0","0","0","0","0","0","0","0","9","9","9","9","NA","9","9","3","0","9","0","0","0","3","0","Wed Jan 10 14:58:05 2024","The main experiment item","no","fmri_experiment_final.osexp","C:\TASKS\CNC\fCourse2024_Ctrack\cognition","no","mono","no","24","no","black","no","yes","768","Google_1_Nathan Kiger_3_oval.jpg","600","psycho","0","0","9","C:/TASKS/CNC/fCourse2024_Ctrack/cognition/subject-3038.csv","psycho","Lentiform Loewenfeld","3.3.12","Google_1_Nathan Kiger_3_oval.jpg","0","1","1","1","1","1","1","NA","407.61120000388473","18178.486399992835","9841.03710000636","9351.66479999316","5396.691800007829","1225.7022999983747","NA","407.61120000388473","25436.359700004687","1","5","2","psycho","1024","2","48000","-16","experiment","3038","even","106653.96270000201","106043.32959999738","NA","104968.37750000122","NA","NA","NA","NA","69156.26570000313","NA","3166.820300000836","107165.12520000106","105033.2672999939","13028.575500007719","3174.043699997128","70167.33110000496","31218.36389999953","64974.02179999335","67917.26489999564","65985.48449999362","67196.59110000066","NA","67706.20410000265","67917.1975000063","107883.38729999668","36615.40340000647","64964.72249999351","107475.27890000492","107475.34289999749","105019.38890000747","79531.59199999936","79531.53710000333","Face Interval Estimation","0","32478.16490002151","12","no","680"
"1","NA","0","undefined","undefined","2590.940669232693","2590.940669232693","#ADADAD","psycho","psycho","psycho","undefined","undefined","undefined","undefined","undefined","undefined","undefined","undefined","1","1","5","0","0","0","0","0","0","0","0","1","1","0","0","0","0","9","9","9","9","NA","9","9","4","0","9","1","1","1","3","0","Wed Jan 10 14:58:05 2024","The main experiment item","no","fmri_experiment_final.osexp","C:\TASKS\CNC\fCourse2024_Ctrack\cognition","no","mono","no","24","no","black","no","yes","768","Google_1_Jonathan Marek_13_oval.jpg","1200","psycho","1","1","9","C:/TASKS/CNC/fCourse2024_Ctrack/cognition/subject-3038.csv","psycho","Lentiform Loewenfeld","3.3.12","Google_1_Louis Somerville_13_oval.jpg","0","1","1","1","1","1","1","NA","1204.063800003496","18178.486399992835","9841.03710000636","9351.66479999316","5396.691800007829","1225.7022999983747","NA","1204.063800003496","25436.359700004687","1","5","2","psycho","1024","2","48000","-16","experiment","3038","even","110170.55700000492","108959.79900000384","NA","104968.37750000122","NA","NA","NA","NA","69156.26570000313","NA","3166.820300000836","110681.35719999555","107950.30029999907","13028.575500007719","3174.043699997128","70167.33110000496","31218.36389999953","64974.02179999335","67917.26489999564","65985.48449999362","67196.59110000066","NA","67706.20410000265","67917.1975000063","112195.40039999993","36615.40340000647","64964.72249999351","110990.73689999932","110990.87270000018","107937.38469999516","79531.59199999936","79531.53710000333","Face Interval Estimation","0","33682.22870002501","13","no","680"
"1","NA","1","undefined","undefined","2467.4859428591194","2467.4859428591194","#ADADAD","psycho","psycho","psycho","undefined","undefined","undefined","undefined","undefined","undefined","undefined","undefined","2","2","5","0","0","0","0","0","0","0","0","2","2","0","0","0","0","9","9","9","9","NA","9","9","5","0","9","2","2","2","3","0","Wed Jan 10 14:58:05 2024","The main experiment item","no","fmri_experiment_final.osexp","C:\TASKS\CNC\fCourse2024_Ctrack\cognition","no","mono","no","24","no","black","no","yes","768","Google_1_Gregory Moreira_17_oval.jpg","1200","psycho","2","2","9","C:/TASKS/CNC/fCourse2024_Ctrack/cognition/subject-3038.csv","psycho","Lentiform Loewenfeld","3.3.12","Google_1_Gregory Moreira_17_oval.jpg","0","1","1","1","1","1","1","NA","862.5745000026654","18178.486399992835","9841.03710000636","9351.66479999316","5396.691800007829","1225.7022999983747","NA","862.5745000026654","25436.359700004687","1","5","2","psycho","1024","2","48000","-16","experiment","3038","even","114478.20430000138","113267.00599999458","NA","104968.37750000122","NA","NA","NA","NA","69156.26570000313","NA","3166.820300000836","114988.33100000047","112258.11290000274","13028.575500007719","3174.043699997128","70167.33110000496","31218.36389999953","64974.02179999335","67917.26489999564","65985.48449999362","67196.59110000066","NA","67706.20410000265","67917.1975000063","116161.28349999781","36615.40340000647","64964.72249999351","115298.28509999788","115298.3591999946","112245.83080000593","79531.59199999936","79531.53710000333","Face Interval Estimation","0","34544.80320002767","14","no","680"
"1","NA","1","undefined","undefined","2370.6777733352887","2370.6777733352887","#ADADAD","psycho","psycho","psycho","undefined","undefined","undefined","undefined","undefined","undefined","undefined","undefined","3","3","5","0","0","0","0","0","0","0","0","3","3","0","0","0","0","9","9","9","9","NA","9","9","6","0","9","3","3","3","3","0","Wed Jan 10 14:58:05 2024","The main experiment item","no","fmri_experiment_final.osexp","C:\TASKS\CNC\fCourse2024_Ctrack\cognition","no","mono","no","24","no","black","no","yes","768","Google_1_Inez Hofer_5_oval.jpg","1000","psycho","3","3","9","C:/TASKS/CNC/fCourse2024_Ctrack/cognition/subject-3038.csv","psycho","Lentiform Loewenfeld","3.3.12","Google_1_Inez Hofer_5_oval.jpg","0","1","1","1","1","1","1","NA","1015.3634000016609","18178.486399992835","9841.03710000636","9351.66479999316","5396.691800007829","1225.7022999983747","NA","1015.3634000016609","25436.359700004687","1","5","2","psycho","1024","2","48000","-16","experiment","3038","even","118243.37310000556","117231.8629000074","NA","104968.37750000122","NA","NA","NA","NA","69156.26570000313","NA","3166.820300000836","118752.51920000301","116222.43850000086","13028.575500007719","3174.043699997128","70167.33110000496","31218.36389999953","64974.02179999335","67917.26489999564","65985.48449999362","67196.59110000066","NA","67706.20410000265","67917.1975000063","120080.28189999459","36615.40340000647","64964.72249999351","119064.49699999939","119064.56379999872","116210.41379999951","79531.59199999936","79531.53710000333","Face Interval Estimation","0","35560.16660002933","15","no","680"
"0","NA","0","undefined","undefined","2295.542318751359","2295.542318751359","#ADADAD","psycho","psycho","psycho","undefined","undefined","undefined","undefined","undefined","undefined","undefined","undefined","4","4","5","0","0","0","0","0","0","0","0","4","4","0","0","0","0","9","9","9","9","NA","9","9","7","0","9","4","4","4","3","0","Wed Jan 10 14:58:05 2024","The main experiment item","no","fmri_experiment_final.osexp","C:\TASKS\CNC\fCourse2024_Ctrack\cognition","no","mono","no","24","no","black","no","yes","768","Google_1_Fred Berube_15_oval.jpg","800","psycho","4","4","9","C:/TASKS/CNC/fCourse2024_Ctrack/cognition/subject-3038.csv","psycho","Lentiform Loewenfeld","3.3.12","Google_1_Kristin Skelly_3_oval.jpg","0","1","1","1","1","1","1","NA","1168.5104999924079","18178.486399992835","9841.03710000636","9351.66479999316","5396.691800007829","1225.7022999983747","NA","1168.5104999924079","25436.359700004687","1","5","2","psycho","1024","2","48000","-16","experiment","3038","even","121964.71010000096","121150.44399999897","NA","104968.37750000122","NA","NA","NA","NA","69156.26570000313","NA","3166.820300000836","122473.33039999648","120141.68080000672","13028.575500007719","3174.043699997128","70167.33110000496","31218.36389999953","64974.02179999335","67917.26489999564","65985.48449999362","67196.59110000066","NA","67706.20410000265","67917.1975000063","123952.25790000404","36615.40340000647","64964.72249999351","122783.3302999934","122783.40230000322","120129.65800000529","79531.59199999936","79531.53710000333","Face Interval Estimation","0","36728.67710002174","16","no","680"
"1","NA","0","undefined","undefined","2217.4695000011366","2217.4695000011366","#ADADAD","psycho","psycho","psycho","undefined","undefined","undefined","undefined","undefined","undefined","undefined","undefined","5","5","5","0","0","0","0","0","0","0","0","5","5","0","0","0","0","9","9","9","9","NA","9","9","8","0","9","5","5","5","3","0","Wed Jan 10 14:58:05 2024","The main experiment item","no","fmri_experiment_final.osexp","C:\TASKS\CNC\fCourse2024_Ctrack\cognition","no","mono","no","24","no","black","no","yes","768","Brian_Friedrich_19_oval.jpg","800","psycho","5","5","9","C:/TASKS/CNC/fCourse2024_Ctrack/cognition/subject-3038.csv","psycho","Lentiform Loewenfeld","3.3.12","Google_1_Frank Luke_9_oval.jpg","0","1","1","1","1","1","1","NA","968.304399997578","18178.486399992835","9841.03710000636","9351.66479999316","5396.691800007829","1225.7022999983747","NA","968.304399997578","25436.359700004687","1","5","2","psycho","1024","2","48000","-16","experiment","3038","even","125836.97740000207","125024.39120000054","NA","104968.37750000122","NA","NA","NA","NA","69156.26570000313","NA","3166.820300000836","126349.01849999733","124015.64399999916","13028.575500007719","3174.043699997128","70167.33110000496","31218.36389999953","64974.02179999335","67917.26489999564","65985.48449999362","67196.59110000066","NA","67706.20410000265","67917.1975000063","127628.3870000043","36615.40340000647","64964.72249999351","126659.55409999879","126659.62750000472","124002.31409999833","79531.59199999936","79531.53710000333","Face Interval Estimation","0","37696.98150001932","17","no","680"
"0","NA","1","undefined","undefined","2120.3639000013936","2120.3639000013936","#ADADAD","psycho","psycho","psycho","undefined","undefined","undefined","undefined","undefined","undefined","undefined","undefined","6","6","5","0","0","0","0","0","0","0","0","6","6","0","0","0","0","9","9","9","9","NA","9","9","9","0","9","6","6","6","3","0","Wed Jan 10 14:58:05 2024","The main experiment item","no","fmri_experiment_final.osexp","C:\TASKS\CNC\fCourse2024_Ctrack\cognition","no","mono","no","24","no","black","no","yes","768","Google_1_Michael Turcotte_13_oval.jpg","600","psycho","6","6","9","C:/TASKS/CNC/fCourse2024_Ctrack/cognition/subject-3038.csv","psycho","Lentiform Loewenfeld","3.3.12","Google_1_Michael Turcotte_13_oval.jpg","0","1","1","1","1","1","1","NA","469.568700005766","18178.486399992835","9841.03710000636","9351.66479999316","5396.691800007829","1225.7022999983747","NA","469.568700005766","25436.359700004687","1","5","2","psycho","1024","2","48000","-16","experiment","3038","even","129311.86070000695","128700.83909999812","NA","104968.37750000122","NA","NA","NA","NA","69156.26570000313","NA","3166.820300000836","129821.75479999569","127689.2336000019","13028.575500007719","3174.043699997128","70167.33110000496","31218.36389999953","64974.02179999335","67917.26489999564","65985.48449999362","67196.59110000066","NA","67706.20410000265","67917.1975000063","130601.25520000292","36615.40340000647","64964.72249999351","130131.24420000531","130131.33099999686","127678.11029999575","79531.59199999936","79531.53710000333","Face Interval Estimation","0","38166.550200025085","18","no","680"
"0","NA","1","undefined","undefined","2062.7306315804353","2062.7306315804353","#ADADAD","psycho","psycho","psycho","undefined","undefined","undefined","undefined","undefined","undefined","undefined","undefined","7","7","5","0","0","0","0","0","0","0","0","7","7","0","0","0","0","9","9","9","9","NA","9","9","10","0","9","7","7","7","3","0","Wed Jan 10 14:58:05 2024","The main experiment item","no","fmri_experiment_final.osexp","C:\TASKS\CNC\fCourse2024_Ctrack\cognition","no","mono","no","24","no","black","no","yes","768","Google_1_Paul Sun_9_oval.jpg","1200","psycho","7","7","9","C:/TASKS/CNC/fCourse2024_Ctrack/cognition/subject-3038.csv","psycho","Lentiform Loewenfeld","3.3.12","Google_1_Paul Sun_9_oval.jpg","0","1","1","1","1","1","1","NA","1025.3318000031868","18178.486399992835","9841.03710000636","9351.66479999316","5396.691800007829","1225.7022999983747","NA","1025.3318000031868","25436.359700004687","1","5","2","psycho","1024","2","48000","-16","experiment","3038","even","132883.59850000415","131673.34959999425","NA","104968.37750000122","NA","NA","NA","NA","69156.26570000313","NA","3166.820300000836","133394.04889999423","130663.6792000063","13028.575500007719","3174.043699997128","70167.33110000496","31218.36389999953","64974.02179999335","67917.26489999564","65985.48449999362","67196.59110000066","NA","67706.20410000265","67917.1975000063","134731.32449999684","36615.40340000647","64964.72249999351","133705.5171999964","133705.58809999784","130651.54619999521","79531.59199999936","79531.53710000333","Face Interval Estimation","0","39191.88200002827","19","no","680"
"0","NA","1","undefined","undefined","2015.357780001068","2015.357780001068","#ADADAD","psycho","psycho","psycho","undefined","undefined","undefined","undefined","undefined","undefined","undefined","undefined","8","8","5","0","0","0","0","0","0","0","0","8","8","0","0","0","0","9","9","9","9","NA","9","9","11","0","9","8","8","8","3","0","Wed Jan 10 14:58:05 2024","The main experiment item","no","fmri_experiment_final.osexp","C:\TASKS\CNC\fCourse2024_Ctrack\cognition","no","mono","no","24","no","black","no","yes","768","Google_1_Kara Tsang_15_oval.jpg","1200","psycho","8","8","9","C:/TASKS/CNC/fCourse2024_Ctrack/cognition/subject-3038.csv","psycho","Lentiform Loewenfeld","3.3.12","Google_1_Kara Tsang_15_oval.jpg","0","1","1","1","1","1","1","NA","1115.2735999930883","18178.486399992835","9841.03710000636","9351.66479999316","5396.691800007829","1225.7022999983747","NA","1115.2735999930883","25436.359700004687","1","5","2","psycho","1024","2","48000","-16","experiment","3038","even","137016.39489999798","135806.0683000076","NA","104968.37750000122","NA","NA","NA","NA","69156.26570000313","NA","3166.820300000836","137528.68930000113","134795.7380000007","13028.575500007719","3174.043699997128","70167.33110000496","31218.36389999953","64974.02179999335","67917.26489999564","65985.48449999362","67196.59110000066","NA","67706.20410000265","67917.1975000063","138954.27620000555","36615.40340000647","64964.72249999351","137838.55590000167","137838.63280000514","134782.83189999638","79531.59199999936","79531.53710000333","Face Interval Estimation","0","40307.15560002136","20","no","680"
"0","NA","0","undefined","undefined","1960.803571429486","1960.803571429486","#ADADAD","psycho","psycho","psycho","undefined","undefined","undefined","undefined","undefined","undefined","undefined","undefined","9","9","5","0","0","0","0","0","0","0","0","9","9","0","0","0","0","9","9","9","9","NA","9","9","12","0","9","9","9","9","3","0","Wed Jan 10 14:58:05 2024","The main experiment item","no","fmri_experiment_final.osexp","C:\TASKS\CNC\fCourse2024_Ctrack\cognition","no","mono","no","24","no","black","no","yes","768","Google_1_Larry Perryman_5_oval.jpg","800","psycho","9","9","9","C:/TASKS/CNC/fCourse2024_Ctrack/cognition/subject-3038.csv","psycho","Lentiform Loewenfeld","3.3.12","Allison_Samson_13_oval.jpg","0","1","1","1","1","1","1","NA","869.7193999978481","18178.486399992835","9841.03710000636","9351.66479999316","5396.691800007829","1225.7022999983747","NA","869.7193999978481","25436.359700004687","1","5","2","psycho","1024","2","48000","-16","experiment","3038","even","140841.83309999935","140028.44949999417","NA","104968.37750000122","NA","NA","NA","NA","69156.26570000313","NA","3166.820300000836","141350.9328999935","139016.3751999935","13028.575500007719","3174.043699997128","70167.33110000496","31218.36389999953","64974.02179999335","67917.26489999564","65985.48449999362","67196.59110000066","NA","67706.20410000265","67917.1975000063","142532.29570000258","36615.40340000647","64964.72249999351","141662.1390000073","141662.20639999665","139004.42749999638","79531.59199999936","79531.53710000333","Face Interval Estimation","0","41176.87500001921","21","no","680"
"0","NA","1","undefined","undefined","1891.400577273585","1891.400577273585","#ADADAD","psycho","psycho","psycho","undefined","undefined","undefined","undefined","undefined","undefined","undefined","undefined","10","10","5","0","0","0","0","0","0","0","0","10","10","0","0","0","0","9","9","9","9","NA","9","9","13","0","9","10","10","10","3","0","Wed Jan 10 14:58:05 2024","The main experiment item","no","fmri_experiment_final.osexp","C:\TASKS\CNC\fCourse2024_Ctrack\cognition","no","mono","no","24","no","black","no","yes","768","Google_1_Molly Mccants_15_oval.jpg","600","psycho","10","10","9","C:/TASKS/CNC/fCourse2024_Ctrack/cognition/subject-3038.csv","psycho","Lentiform Loewenfeld","3.3.12","Google_1_Molly Mccants_15_oval.jpg","0","1","1","1","1","1","1","NA","433.93769999966025","18178.486399992835","9841.03710000636","9351.66479999316","5396.691800007829","1225.7022999983747","NA","433.93769999966025","25436.359700004687","1","5","2","psycho","1024","2","48000","-16","experiment","3038","even","144216.49809999508","143604.49870000593","NA","104968.37750000122","NA","NA","NA","NA","69156.26570000313","NA","3166.820300000836","144729.34960000566","142595.60190000047","13028.575500007719","3174.043699997128","70167.33110000496","31218.36389999953","64974.02179999335","67917.26489999564","65985.48449999362","67196.59110000066","NA","67706.20410000265","67917.1975000063","145472.29370000423","36615.40340000647","64964.72249999351","145037.89390000748","145037.9660000035","142582.54170000146","79531.59199999936","79531.53710000333","Face Interval Estimation","0","41610.81270001887","22","no","680"
"0","NA","1","undefined","undefined","1837.0755826099016","1837.0755826099016","#ADADAD","psycho","psycho","psycho","undefined","undefined","undefined","undefined","undefined","undefined","undefined","undefined","11","11","5","0","0","0","0","0","0","0","0","11","11","0","0","0","0","9","9","9","9","NA","9","9","14","0","9","11","11","11","3","0","Wed Jan 10 14:58:05 2024","The main experiment item","no","fmri_experiment_final.osexp","C:\TASKS\CNC\fCourse2024_Ctrack\cognition","no","mono","no","24","no","black","no","yes","768","Google_1_Keith Priester_5_oval.jpg","800","psycho","11","11","9","C:/TASKS/CNC/fCourse2024_Ctrack/cognition/subject-3038.csv","psycho","Lentiform Loewenfeld","3.3.12","Google_1_Keith Priester_5_oval.jpg","0","1","1","1","1","1","1","NA","641.9257000088692","18178.486399992835","9841.03710000636","9351.66479999316","5396.691800007829","1225.7022999983747","NA","641.9257000088692","25436.359700004687","1","5","2","psycho","1024","2","48000","-16","experiment","3038","even","147357.12010000134","146545.41180000524","NA","104968.37750000122","NA","NA","NA","NA","69156.26570000313","NA","3166.820300000836","147868.5972999956","145534.03910000634","13028.575500007719","3174.043699997128","70167.33110000496","31218.36389999953","64974.02179999335","67917.26489999564","65985.48449999362","67196.59110000066","NA","67706.20410000265","67917.1975000063","148822.2928000032","36615.40340000647","64964.72249999351","148179.90669999563","148179.98349999834","145521.8359999999","79531.59199999936","79531.53710000333","Face Interval Estimation","0","42252.73840002774","23","no","680"
"1","NA","1","undefined","undefined","1781.1665458345185","1781.1665458345185","#ADADAD","psycho","psycho","psycho","undefined","undefined","undefined","undefined","undefined","undefined","undefined","undefined","12","12","5","0","0","0","0","0","0","0","0","12","12","0","0","0","0","9","9","9","9","NA","9","9","15","0","9","12","12","12","3","0","Wed Jan 10 14:58:05 2024","The main experiment item","no","fmri_experiment_final.osexp","C:\TASKS\CNC\fCourse2024_Ctrack\cognition","no","mono","no","24","no","black","no","yes","768","Google_1_Pamela Bermudez_3_oval.jpg","600","psycho","12","12","9","C:/TASKS/CNC/fCourse2024_Ctrack/cognition/subject-3038.csv","psycho","Lentiform Loewenfeld","3.3.12","Google_1_Pamela Bermudez_3_oval.jpg","0","1","1","1","1","1","1","NA","495.25870000070427","18178.486399992835","9841.03710000636","9351.66479999316","5396.691800007829","1225.7022999983747","NA","495.25870000070427","25436.359700004687","1","5","2","psycho","1024","2","48000","-16","experiment","3038","even","150505.45620000048","149895.0124999974","NA","104968.37750000122","NA","NA","NA","NA","69156.26570000313","NA","3166.820300000836","151015.12860000366","148884.28549999662","13028.575500007719","3174.043699997128","70167.33110000496","31218.36389999953","64974.02179999335","67917.26489999564","65985.48449999362","67196.59110000066","NA","67706.20410000265","67917.1975000063","151821.2932000024","36615.40340000647","64964.72249999351","151325.5416000029","151325.61060000444","148871.68250000104","79531.59199999936","79531.53710000333","Face Interval Estimation","0","42747.99710002844","24","no","680"
"0","NA","0","undefined","undefined","1742.4980880011572","1742.4980880011572","#ADADAD","psycho","psycho","psycho","undefined","undefined","undefined","undefined","undefined","undefined","undefined","undefined","13","13","5","0","0","0","0","0","0","0","0","13","13","0","0","0","0","9","9","9","9","NA","9","9","16","0","9","13","13","13","3","0","Wed Jan 10 14:58:05 2024","The main experiment item","no","fmri_experiment_final.osexp","C:\TASKS\CNC\fCourse2024_Ctrack\cognition","no","mono","no","24","no","black","no","yes","768","Google_1_Stephen Masterson_7_oval.jpg","1200","psycho","13","13","9","C:/TASKS/CNC/fCourse2024_Ctrack/cognition/subject-3038.csv","psycho","Lentiform Loewenfeld","3.3.12","Google_1_Robert Ross_11_oval.jpg","0","1","1","1","1","1","1","NA","814.4551000004867","18178.486399992835","9841.03710000636","9351.66479999316","5396.691800007829","1225.7022999983747","NA","814.4551000004867","25436.359700004687","1","5","2","psycho","1024","2","48000","-16","experiment","3038","even","154107.45080000197","152894.49740000418","NA","104968.37750000122","NA","NA","NA","NA","69156.26570000313","NA","3166.820300000836","154616.0244000057","151883.75550000637","13028.575500007719","3174.043699997128","70167.33110000496","31218.36389999953","64974.02179999335","67917.26489999564","65985.48449999362","67196.59110000066","NA","67706.20410000265","67917.1975000063","155741.25279999862","36615.40340000647","64964.72249999351","154926.3554000063","154926.4245999948","151871.51060000178","79531.59199999936","79531.53710000333","Face Interval Estimation","0","43562.45220002893","25","no","680"
"1","NA","1","undefined","undefined","1701.254488462627","1701.254488462627","#ADADAD","psycho","psycho","psycho","undefined","undefined","undefined","undefined","undefined","undefined","undefined","undefined","14","14","5","0","0","0","0","0","0","0","0","14","14","0","0","0","0","9","9","9","9","NA","9","9","17","0","9","14","14","14","3","0","Wed Jan 10 14:58:05 2024","The main experiment item","no","fmri_experiment_final.osexp","C:\TASKS\CNC\fCourse2024_Ctrack\cognition","no","mono","no","24","no","black","no","yes","768","Google_1_Ernest Swisher_9_oval.jpg","1000","psycho","14","14","9","C:/TASKS/CNC/fCourse2024_Ctrack/cognition/subject-3038.csv","psycho","Lentiform Loewenfeld","3.3.12","Google_1_Ernest Swisher_9_oval.jpg","0","1","1","1","1","1","1","NA","670.1644999993732","18178.486399992835","9841.03710000636","9351.66479999316","5396.691800007829","1225.7022999983747","NA","670.1644999993732","25436.359700004687","1","5","2","psycho","1024","2","48000","-16","experiment","3038","even","157822.24730000598","156811.53710000217","NA","104968.37750000122","NA","NA","NA","NA","69156.26570000313","NA","3166.820300000836","158332.1322999982","155800.67009999766","13028.575500007719","3174.043699997128","70167.33110000496","31218.36389999953","64974.02179999335","67917.26489999564","65985.48449999362","67196.59110000066","NA","67706.20410000265","67917.1975000063","159315.31180000457","36615.40340000647","64964.72249999351","158644.64739999676","158644.71890000277","155789.4718000025","79531.59199999936","79531.53710000333","Face Interval Estimation","0","44232.6167000283","26","no","680"
"1","NA","1","undefined","undefined","1662.7670370378635","1662.7670370378635","#ADADAD","psycho","psycho","psycho","undefined","undefined","undefined","undefined","undefined","undefined","undefined","undefined","15","15","5","0","0","0","0","0","0","0","0","15","15","0","0","0","0","9","9","9","9","NA","9","9","18","0","9","15","15","15","3","0","Wed Jan 10 14:58:05 2024","The main experiment item","no","fmri_experiment_final.osexp","C:\TASKS\CNC\fCourse2024_Ctrack\cognition","no","mono","no","24","no","black","no","yes","768","Google_1_Carlos Diep_19_oval.jpg","1200","psycho","15","15","9","C:/TASKS/CNC/fCourse2024_Ctrack/cognition/subject-3038.csv","psycho","Lentiform Loewenfeld","3.3.12","Google_1_Carlos Diep_19_oval.jpg","0","1","1","1","1","1","1","NA","662.0932999940123","18178.486399992835","9841.03710000636","9351.66479999316","5396.691800007829","1225.7022999983747","NA","662.0932999940123","25436.359700004687","1","5","2","psycho","1024","2","48000","-16","experiment","3038","even","161603.42729999684","160392.6758000016","NA","104968.37750000122","NA","NA","NA","NA","69156.26570000313","NA","3166.820300000836","162114.02940000698","159380.38220000453","13028.575500007719","3174.043699997128","70167.33110000496","31218.36389999953","64974.02179999335","67917.26489999564","65985.48449999362","67196.59110000066","NA","67706.20410000265","67917.1975000063","163089.21689999988","36615.40340000647","64964.72249999351","162426.67109999456","162426.74490000354","159367.00040000142","79531.59199999936","79531.53710000333","Face Interval Estimation","0","44894.710000022314","27","no","680"
"0","NA","1","undefined","undefined","1624.7018857149149","1624.7018857149149","#ADADAD","psycho","psycho","psycho","undefined","undefined","undefined","undefined","undefined","undefined","undefined","undefined","16","16","5","0","0","0","0","0","0","0","0","16","16","0","0","0","0","9","9","9","9","NA","9","9","19","0","9","16","16","16","3","0","Wed Jan 10 14:58:05 2024","The main experiment item","no","fmri_experiment_final.osexp","C:\TASKS\CNC\fCourse2024_Ctrack\cognition","no","mono","no","24","no","black","no","yes","768","Google_1_Erica Vue_9_oval.jpg","600","psycho","16","16","9","C:/TASKS/CNC/fCourse2024_Ctrack/cognition/subject-3038.csv","psycho","Lentiform Loewenfeld","3.3.12","Google_1_Erica Vue_9_oval.jpg","0","1","1","1","1","1","1","NA","596.9427999953041","18178.486399992835","9841.03710000636","9351.66479999316","5396.691800007829","1225.7022999983747","NA","596.9427999953041","25436.359700004687","1","5","2","psycho","1024","2","48000","-16","experiment","3038","even","164772.85839999968","164162.1063000057","NA","104968.37750000122","NA","NA","NA","NA","69156.26570000313","NA","3166.820300000836","165282.73089999857","163149.93759999925","13028.575500007719","3174.043699997128","70167.33110000496","31218.36389999953","64974.02179999335","67917.26489999564","65985.48449999362","67196.59110000066","NA","67706.20410000265","67917.1975000063","166191.29780000367","36615.40340000647","64964.72249999351","165593.8610000012","165593.93940000155","163138.73190000595","79531.59199999936","79531.53710000333","Face Interval Estimation","0","45491.65280001762","28","no","680"
"0","NA","1","undefined","undefined","1600.5489448284136","1600.5489448284136","#ADADAD","psycho","psycho","psycho","undefined","undefined","undefined","undefined","undefined","undefined","undefined","undefined","17","17","5","0","0","0","0","0","0","0","0","17","17","0","0","0","0","9","9","9","9","NA","9","9","20","0","9","17","17","17","3","0","Wed Jan 10 14:58:05 2024","The main experiment item","no","fmri_experiment_final.osexp","C:\TASKS\CNC\fCourse2024_Ctrack\cognition","no","mono","no","24","no","black","no","yes","768","Google_1_Victor Ellinger_16_oval.jpg","1200","psycho","17","17","9","C:/TASKS/CNC/fCourse2024_Ctrack/cognition/subject-3038.csv","psycho","Lentiform Loewenfeld","3.3.12","Google_1_Victor Ellinger_16_oval.jpg","0","1","1","1","1","1","1","NA","924.2666000063764","18178.486399992835","9841.03710000636","9351.66479999316","5396.691800007829","1225.7022999983747","NA","924.2666000063764","25436.359700004687","1","5","2","psycho","1024","2","48000","-16","experiment","3038","even","168474.91190000437","167263.3397000027","NA","104968.37750000122","NA","NA","NA","NA","69156.26570000313","NA","3166.820300000836","168985.4803000053","166252.20780000382","13028.575500007719","3174.043699997128","70167.33110000496","31218.36389999953","64974.02179999335","67917.26489999564","65985.48449999362","67196.59110000066","NA","67706.20410000265","67917.1975000063","170220.27639999578","36615.40340000647","64964.72249999351","169295.52319999493","169295.60219999985","166241.14509999345","79531.59199999936","79531.53710000333","Face Interval Estimation","0","46415.919400023995","29","no","680"
"1","NA","0","undefined","undefined","1584.2607733337597","1584.2607733337597","#ADADAD","psycho","psycho","psycho","undefined","undefined","undefined","undefined","undefined","undefined","undefined","undefined","18","18","5","0","0","0","0","0","0","0","0","18","18","0","0","0","0","9","9","9","9","NA","9","9","21","0","9","18","18","18","3","0","Wed Jan 10 14:58:05 2024","The main experiment item","no","fmri_experiment_final.osexp","C:\TASKS\CNC\fCourse2024_Ctrack\cognition","no","mono","no","24","no","black","no","yes","768","Google_1_Patsy Steadman_3_oval.jpg","1000","psycho","18","18","9","C:/TASKS/CNC/fCourse2024_Ctrack/cognition/subject-3038.csv","psycho","Lentiform Loewenfeld","3.3.12","Google_1_Carolyn Kiley_7_oval.jpg","0","1","1","1","1","1","1","NA","1111.903799988795","18178.486399992835","9841.03710000636","9351.66479999316","5396.691800007829","1225.7022999983747","NA","1111.903799988795","25436.359700004687","1","5","2","psycho","1024","2","48000","-16","experiment","3038","even","172304.54100000497","171293.47049999342","NA","104968.37750000122","NA","NA","NA","NA","69156.26570000313","NA","3166.820300000836","172813.33570000425","170282.7724999952","13028.575500007719","3174.043699997128","70167.33110000496","31218.36389999953","64974.02179999335","67917.26489999564","65985.48449999362","67196.59110000066","NA","67706.20410000265","67917.1975000063","174236.29169999913","36615.40340000647","64964.72249999351","173123.8899000018","173123.9687000052","170270.18730000418","79531.59199999936","79531.53710000333","Face Interval Estimation","0","47527.82320001279","30","no","680"
"1","NA","0","undefined","undefined","1563.1370548390776","1563.1370548390776","#ADADAD","psycho","psycho","psycho","undefined","undefined","undefined","undefined","undefined","undefined","undefined","undefined","19","19","5","0","0","0","0","0","0","0","0","19","19","0","0","0","0","9","9","9","9","NA","9","9","22","0","9","19","19","19","3","0","Wed Jan 10 14:58:05 2024","The main experiment item","no","fmri_experiment_final.osexp","C:\TASKS\CNC\fCourse2024_Ctrack\cognition","no","mono","no","24","no","black","no","yes","768","Google_1_Russell Baeza_13_oval.jpg","1200","psycho","19","19","9","C:/TASKS/CNC/fCourse2024_Ctrack/cognition/subject-3038.csv","psycho","Lentiform Loewenfeld","3.3.12","Google_1_Marjorie Petty_11_oval.jpg","0","1","1","1","1","1","1","NA","929.4254999986151","18178.486399992835","9841.03710000636","9351.66479999316","5396.691800007829","1225.7022999983747","NA","929.4254999986151","25436.359700004687","1","5","2","psycho","1024","2","48000","-16","experiment","3038","even","176520.0310000073","175309.11849999393","NA","104968.37750000122","NA","NA","NA","NA","69156.26570000313","NA","3166.820300000836","177028.8131999987","174299.00199999975","13028.575500007719","3174.043699997128","70167.33110000496","31218.36389999953","64974.02179999335","67917.26489999564","65985.48449999362","67196.59110000066","NA","67706.20410000265","67917.1975000063","178270.29519999633","36615.40340000647","64964.72249999351","177340.36410000408","177340.42670000053","174287.46180000599","79531.59199999936","79531.53710000333","Face Interval Estimation","0","48457.248700011405","31","no","680"
"1","NA","0","undefined","undefined","1551.7984281250392","1551.7984281250392","#ADADAD","psycho","psycho","psycho","undefined","undefined","undefined","undefined","undefined","undefined","undefined","undefined","20","20","5","0","0","0","0","0","0","0","0","20","20","0","0","0","0","9","9","9","9","NA","9","9","23","0","9","20","20","20","3","0","Wed Jan 10 14:58:05 2024","The main experiment item","no","fmri_experiment_final.osexp","C:\TASKS\CNC\fCourse2024_Ctrack\cognition","no","mono","no","24","no","black","no","yes","768","Google_1_Glenn Leyba_19_oval.jpg","1000","psycho","20","20","9","C:/TASKS/CNC/fCourse2024_Ctrack/cognition/subject-3038.csv","psycho","Lentiform Loewenfeld","3.3.12","Google_1_Gregory Heflin_9_oval.jpg","0","1","1","1","1","1","1","NA","1200.3009999898495","18178.486399992835","9841.03710000636","9351.66479999316","5396.691800007829","1225.7022999983747","NA","1200.3009999898495","25436.359700004687","1","5","2","psycho","1024","2","48000","-16","experiment","3038","even","180370.09769999713","179360.8561000001","NA","104968.37750000122","NA","NA","NA","NA","69156.26570000313","NA","3166.820300000836","180879.97140000516","178349.24349999346","13028.575500007719","3174.043699997128","70167.33110000496","31218.36389999953","64974.02179999335","67917.26489999564","65985.48449999362","67196.59110000066","NA","67706.20410000265","67917.1975000063","182392.25580000493","36615.40340000647","64964.72249999351","181191.4825999993","181191.54820000404","178337.77319999353","79531.59199999936","79531.53710000333","Face Interval Estimation","0","49657.549700001255","32","no","680"
"0","NA","0","undefined","undefined","1525.4751727272487","1525.4751727272487","#ADADAD","psycho","psycho","psycho","undefined","undefined","undefined","undefined","undefined","undefined","undefined","undefined","21","21","5","0","0","0","0","0","0","0","0","21","21","0","0","0","0","9","9","9","9","NA","9","9","24","0","9","21","21","21","3","0","Wed Jan 10 14:58:05 2024","The main experiment item","no","fmri_experiment_final.osexp","C:\TASKS\CNC\fCourse2024_Ctrack\cognition","no","mono","no","24","no","black","no","yes","768","Google_1_Vicky Weis_15_oval.jpg","1000","psycho","21","21","9","C:/TASKS/CNC/fCourse2024_Ctrack/cognition/subject-3038.csv","psycho","Lentiform Loewenfeld","3.3.12","Google_1_Jonathan Bozarth_17_oval.jpg","0","1","1","1","1","1","1","NA","683.1309999979567","18178.486399992835","9841.03710000636","9351.66479999316","5396.691800007829","1225.7022999983747","NA","683.1309999979567","25436.359700004687","1","5","2","psycho","1024","2","48000","-16","experiment","3038","even","184492.89649999992","183480.11970000516","NA","104968.37750000122","NA","NA","NA","NA","69156.26570000313","NA","3166.820300000836","185002.13259999873","182469.72720000485","13028.575500007719","3174.043699997128","70167.33110000496","31218.36389999953","64974.02179999335","67917.26489999564","65985.48449999362","67196.59110000066","NA","67706.20410000265","67917.1975000063","185996.46049999865","36615.40340000647","64964.72249999351","185312.64699999883","185312.71680000646","182458.64379999693","79531.59199999936","79531.53710000333","Face Interval Estimation","0","50340.68069999921","33","no","680"
"1","NA","0","undefined","undefined","1506.7550529411699","1506.7550529411699","#ADADAD","psycho","psycho","psycho","undefined","undefined","undefined","undefined","undefined","undefined","undefined","undefined","22","22","5","0","0","0","0","0","0","0","0","22","22","0","0","0","0","9","9","9","9","NA","9","9","25","0","9","22","22","22","3","0","Wed Jan 10 14:58:05 2024","The main experiment item","no","fmri_experiment_final.osexp","C:\TASKS\CNC\fCourse2024_Ctrack\cognition","no","mono","no","24","no","black","no","yes","768","Google_1_Justin Woodard_15_oval.jpg","1200","psycho","22","22","9","C:/TASKS/CNC/fCourse2024_Ctrack/cognition/subject-3038.csv","psycho","Lentiform Loewenfeld","3.3.12","Google_1_Laura Hines_7_oval.jpg","0","1","1","1","1","1","1","NA","888.9911000005668","18178.486399992835","9841.03710000636","9351.66479999316","5396.691800007829","1225.7022999983747","NA","888.9911000005668","25436.359700004687","1","5","2","psycho","1024","2","48000","-16","experiment","3038","even","188278.66979999817","187067.3983000015","NA","104968.37750000122","NA","NA","NA","NA","69156.26570000313","NA","3166.820300000836","188789.68170000007","186058.59020000207","13028.575500007719","3174.043699997128","70167.33110000496","31218.36389999953","64974.02179999335","67917.26489999564","65985.48449999362","67196.59110000066","NA","67706.20410000265","67917.1975000063","189989.27639999602","36615.40340000647","64964.72249999351","189099.79219999514","189099.8624000058","186046.3810999936","79531.59199999936","79531.53710000333","Face Interval Estimation","0","51229.67179999978","34","no","680"
"1","NA","1","undefined","undefined","1486.1312942857953","1486.1312942857953","#ADADAD","psycho","psycho","psycho","undefined","undefined","undefined","undefined","undefined","undefined","undefined","undefined","23","23","5","0","0","0","0","0","0","0","0","23","23","0","0","0","0","9","9","9","9","NA","9","9","26","0","9","23","23","23","3","0","Wed Jan 10 14:58:05 2024","The main experiment item","no","fmri_experiment_final.osexp","C:\TASKS\CNC\fCourse2024_Ctrack\cognition","no","mono","no","24","no","black","no","yes","768","Google_1_Kristin Catalan_7_oval.jpg","1200","psycho","23","23","9","C:/TASKS/CNC/fCourse2024_Ctrack/cognition/subject-3038.csv","psycho","Lentiform Loewenfeld","3.3.12","Google_1_Kristin Catalan_7_oval.jpg","0","1","1","1","1","1","1","NA","784.9235000030603","18178.486399992835","9841.03710000636","9351.66479999316","5396.691800007829","1225.7022999983747","NA","784.9235000030603","25436.359700004687","1","5","2","psycho","1024","2","48000","-16","experiment","3038","even","192289.23949999444","191078.35290000367","NA","104968.37750000122","NA","NA","NA","NA","69156.26570000313","NA","3166.820300000836","192801.19549999654","190069.12909999664","13028.575500007719","3174.043699997128","70167.33110000496","31218.36389999953","64974.02179999335","67917.26489999564","65985.48449999362","67196.59110000066","NA","67706.20410000265","67917.1975000063","193896.26110000245","36615.40340000647","64964.72249999351","193110.83780000627","193110.91940000188","190057.53600000753","79531.59199999936","79531.53710000333","Face Interval Estimation","0","52014.59530000284","35","no","680"
"0","NA","0","undefined","undefined","1467.5572666666185","1467.5572666666185","#ADADAD","psycho","psycho","psycho","undefined","undefined","undefined","undefined","undefined","undefined","undefined","undefined","24","24","5","0","0","0","0","0","0","0","0","24","24","0","0","0","0","9","9","9","9","NA","9","9","27","0","9","24","24","24","3","0","Wed Jan 10 14:58:05 2024","The main experiment item","no","fmri_experiment_final.osexp","C:\TASKS\CNC\fCourse2024_Ctrack\cognition","no","mono","no","24","no","black","no","yes","768","Google_1_Barbara Oakes_13_oval.jpg","1200","psycho","24","24","9","C:/TASKS/CNC/fCourse2024_Ctrack/cognition/subject-3038.csv","psycho","Lentiform Loewenfeld","3.3.12","Albert_Waring_1_oval.jpg","0","1","1","1","1","1","1","NA","817.4662999954307","18178.486399992835","9841.03710000636","9351.66479999316","5396.691800007829","1225.7022999983747","NA","817.4662999954307","25436.359700004687","1","5","2","psycho","1024","2","48000","-16","experiment","3038","even","196180.27230000007","194969.36010000354","NA","104968.37750000122","NA","NA","NA","NA","69156.26570000313","NA","3166.820300000836","196691.94370000332","193959.15429999877","13028.575500007719","3174.043699997128","70167.33110000496","31218.36389999953","64974.02179999335","67917.26489999564","65985.48449999362","67196.59110000066","NA","67706.20410000265","67917.1975000063","197820.26870000118","36615.40340000647","64964.72249999351","197002.290599994","197002.36110000696","193946.43399999768","79531.59199999936","79531.53710000333","Face Interval Estimation","0","52832.06159999827","36","no","680"
"1","NA","0","undefined","undefined","1456.5360675675233","1456.5360675675233","#ADADAD","psycho","psycho","psycho","undefined","undefined","undefined","undefined","undefined","undefined","undefined","undefined","25","25","5","0","0","0","0","0","0","0","0","25","25","0","0","0","0","9","9","9","9","NA","9","9","28","0","9","25","25","25","3","0","Wed Jan 10 14:58:05 2024","The main experiment item","no","fmri_experiment_final.osexp","C:\TASKS\CNC\fCourse2024_Ctrack\cognition","no","mono","no","24","no","black","no","yes","768","Google_1_Lorraine Byrd_9_oval.jpg","1200","psycho","25","25","9","C:/TASKS/CNC/fCourse2024_Ctrack/cognition/subject-3038.csv","psycho","Lentiform Loewenfeld","3.3.12","Google_1_Irene Dow_11_oval.jpg","0","1","1","1","1","1","1","NA","1059.7729000000982","18178.486399992835","9841.03710000636","9351.66479999316","5396.691800007829","1225.7022999983747","NA","1059.7729000000982","25436.359700004687","1","5","2","psycho","1024","2","48000","-16","experiment","3038","even","200105.47439999937","198893.96339999803","NA","104968.37750000122","NA","NA","NA","NA","69156.26570000313","NA","3166.820300000836","200614.32799999602","197882.94140000653","13028.575500007719","3174.043699997128","70167.33110000496","31218.36389999953","64974.02179999335","67917.26489999564","65985.48449999362","67196.59110000066","NA","67706.20410000265","67917.1975000063","201985.394000003","36615.40340000647","64964.72249999351","200924.99840000528","200925.06490000233","197871.8186000042","79531.59199999936","79531.53710000333","Face Interval Estimation","0","53891.83449999837","37","no","680"
"1","NA","1","undefined","undefined","1428.5199052633527","1428.5199052633527","#ADADAD","psycho","psycho","psycho","undefined","undefined","undefined","undefined","undefined","undefined","undefined","undefined","26","26","5","0","0","0","0","0","0","0","0","26","26","0","0","0","0","9","9","9","9","NA","9","9","29","0","9","26","26","26","3","0","Wed Jan 10 14:58:05 2024","The main experiment item","no","fmri_experiment_final.osexp","C:\TASKS\CNC\fCourse2024_Ctrack\cognition","no","mono","no","24","no","black","no","yes","768","Google_1_Sheryl Oneil_18_oval.jpg","800","psycho","26","26","9","C:/TASKS/CNC/fCourse2024_Ctrack/cognition/subject-3038.csv","psycho","Lentiform Loewenfeld","3.3.12","Google_1_Sheryl Oneil_18_oval.jpg","0","1","1","1","1","1","1","NA","391.9219000090379","18178.486399992835","9841.03710000636","9351.66479999316","5396.691800007829","1225.7022999983747","NA","391.9219000090379","25436.359700004687","1","5","2","psycho","1024","2","48000","-16","experiment","3038","even","203874.7934999992","203062.26669999887","NA","104968.37750000122","NA","NA","NA","NA","69156.26570000313","NA","3166.820300000836","204384.30170000356","202051.39380000765","13028.575500007719","3174.043699997128","70167.33110000496","31218.36389999953","64974.02179999335","67917.26489999564","65985.48449999362","67196.59110000066","NA","67706.20410000265","67917.1975000063","205087.234000006","36615.40340000647","64964.72249999351","204694.82340000104","204694.90299999597","202038.54460000002","79531.59199999936","79531.53710000333","Face Interval Estimation","0","54283.756400007405","38","no","680"
"0","NA","0","undefined","undefined","1402.7928051285785","1402.7928051285785","#ADADAD","psycho","psycho","psycho","undefined","undefined","undefined","undefined","undefined","undefined","undefined","undefined","27","27","5","0","0","0","0","0","0","0","0","27","27","0","0","0","0","9","9","9","9","NA","9","9","30","0","9","27","27","27","3","0","Wed Jan 10 14:58:05 2024","The main experiment item","no","fmri_experiment_final.osexp","C:\TASKS\CNC\fCourse2024_Ctrack\cognition","no","mono","no","24","no","black","no","yes","768","Google_1_Alice Pryor_9_oval.jpg","1000","psycho","27","27","9","C:/TASKS/CNC/fCourse2024_Ctrack/cognition/subject-3038.csv","psycho","Lentiform Loewenfeld","3.3.12","Google_1_Ann Silvey_3_oval.jpg","0","1","1","1","1","1","1","NA","425.16300000716","18178.486399992835","9841.03710000636","9351.66479999316","5396.691800007829","1225.7022999983747","NA","425.16300000716","25436.359700004687","1","5","2","psycho","1024","2","48000","-16","experiment","3038","even","207169.5125999977","206159.90159999637","NA","104968.37750000122","NA","NA","NA","NA","69156.26570000313","NA","3166.820300000836","207680.27450000227","205148.58969999477","13028.575500007719","3174.043699997128","70167.33110000496","31218.36389999953","64974.02179999335","67917.26489999564","65985.48449999362","67196.59110000066","NA","67706.20410000265","67917.1975000063","208416.23960000288","36615.40340000647","64964.72249999351","207990.58130000776","207990.6539999938","205136.3827000023","79531.59199999936","79531.53710000333","Face Interval Estimation","0","54708.919400014565","39","no","680"
"0","NA","1","undefined","undefined","1378.8900125004147","1378.8900125004147","#ADADAD","psycho","psycho","psycho","undefined","undefined","undefined","undefined","undefined","undefined","undefined","undefined","28","28","5","0","0","0","0","0","0","0","0","28","28","0","0","0","0","9","9","9","9","NA","9","9","31","0","9","28","28","28","3","0","Wed Jan 10 14:58:05 2024","The main experiment item","no","fmri_experiment_final.osexp","C:\TASKS\CNC\fCourse2024_Ctrack\cognition","no","mono","no","24","no","black","no","yes","768","Google_1_Howard Matthews_5_oval.jpg","1000","psycho","28","28","9","C:/TASKS/CNC/fCourse2024_Ctrack/cognition/subject-3038.csv","psycho","Lentiform Loewenfeld","3.3.12","Google_1_Howard Matthews_5_oval.jpg","0","1","1","1","1","1","1","NA","446.6811000020243","18178.486399992835","9841.03710000636","9351.66479999316","5396.691800007829","1225.7022999983747","NA","446.6811000020243","25436.359700004687","1","5","2","psycho","1024","2","48000","-16","experiment","3038","even","210499.54900000012","209488.63550000533","NA","104968.37750000122","NA","NA","NA","NA","69156.26570000313","NA","3166.820300000836","211010.18539999495","208478.79639999883","13028.575500007719","3174.043699997128","70167.33110000496","31218.36389999953","64974.02179999335","67917.26489999564","65985.48449999362","67196.59110000066","NA","67706.20410000265","67917.1975000063","211767.2629000008","36615.40340000647","64964.72249999351","211320.06670000555","211320.13059999736","208465.8957000065","79531.59199999936","79531.53710000333","Face Interval Estimation","0","55155.60050001659","40","no","680"
"0","NA","0","undefined","undefined","1364.1923804882426","1364.1923804882426","#ADADAD","psycho","psycho","psycho","undefined","undefined","undefined","undefined","undefined","undefined","undefined","undefined","29","29","5","0","0","0","0","0","0","0","0","29","29","0","0","0","0","9","9","9","9","NA","9","9","32","0","9","29","29","29","3","0","Wed Jan 10 14:58:05 2024","The main experiment item","no","fmri_experiment_final.osexp","C:\TASKS\CNC\fCourse2024_Ctrack\cognition","no","mono","no","24","no","black","no","yes","768","Google_1_Mike Holton_15_oval.jpg","1000","psycho","29","29","9","C:/TASKS/CNC/fCourse2024_Ctrack/cognition/subject-3038.csv","psycho","Lentiform Loewenfeld","3.3.12","Google_1_Cindy Mcdougald_11_oval.jpg","0","1","1","1","1","1","1","NA","776.2871000013547","18178.486399992835","9841.03710000636","9351.66479999316","5396.691800007829","1225.7022999983747","NA","776.2871000013547","25436.359700004687","1","5","2","psycho","1024","2","48000","-16","experiment","3038","even","213852.2484999994","212840.78610000142","NA","104968.37750000122","NA","NA","NA","NA","69156.26570000313","NA","3166.820300000836","214362.13409999618","211830.06550000573","13028.575500007719","3174.043699997128","70167.33110000496","31218.36389999953","64974.02179999335","67917.26489999564","65985.48449999362","67196.59110000066","NA","67706.20410000265","67917.1975000063","215449.25410000724","36615.40340000647","64964.72249999351","214672.44959999516","214672.51540000143","211817.99060000048","79531.59199999936","79531.53710000333","Face Interval Estimation","0","55931.887600017944","41","no","680"
"0","NA","1","undefined","undefined","1343.457373810192","1343.457373810192","#ADADAD","psycho","psycho","psycho","undefined","undefined","undefined","undefined","undefined","undefined","undefined","undefined","30","30","5","0","0","0","0","0","0","0","0","30","30","0","0","0","0","9","9","9","9","NA","9","9","33","0","9","30","30","30","3","0","Wed Jan 10 14:58:05 2024","The main experiment item","no","fmri_experiment_final.osexp","C:\TASKS\CNC\fCourse2024_Ctrack\cognition","no","mono","no","24","no","black","no","yes","768","Google_1_Stanley Guzman_1_oval.jpg","800","psycho","30","30","9","C:/TASKS/CNC/fCourse2024_Ctrack/cognition/subject-3038.csv","psycho","Lentiform Loewenfeld","3.3.12","Google_1_Stanley Guzman_1_oval.jpg","0","1","1","1","1","1","1","NA","493.32210001011845","18178.486399992835","9841.03710000636","9351.66479999316","5396.691800007829","1225.7022999983747","NA","493.32210001011845","25436.359700004687","1","5","2","psycho","1024","2","48000","-16","experiment","3038","even","217352.74170000048","216540.7048000052","NA","104968.37750000122","NA","NA","NA","NA","69156.26570000313","NA","3166.820300000836","217861.49039999873","215528.93760000006","13028.575500007719","3174.043699997128","70167.33110000496","31218.36389999953","64974.02179999335","67917.26489999564","65985.48449999362","67196.59110000066","NA","67706.20410000265","67917.1975000063","218667.39839999354","36615.40340000647","64964.72249999351","218173.4385000018","218173.51199999393","215517.1221000055","79531.59199999936","79531.53710000333","Face Interval Estimation","0","56425.20970002806","42","no","680"
"1","NA","0","undefined","undefined","1331.6691372097541","1331.6691372097541","#ADADAD","psycho","psycho","psycho","undefined","undefined","undefined","undefined","undefined","undefined","undefined","undefined","31","31","5","0","0","0","0","0","0","0","0","31","31","0","0","0","0","9","9","9","9","NA","9","9","34","0","9","31","31","31","3","0","Wed Jan 10 14:58:05 2024","The main experiment item","no","fmri_experiment_final.osexp","C:\TASKS\CNC\fCourse2024_Ctrack\cognition","no","mono","no","24","no","black","no","yes","768","Google_1_Harold Gravitt_1_oval.jpg","600","psycho","31","31","9","C:/TASKS/CNC/fCourse2024_Ctrack/cognition/subject-3038.csv","psycho","Lentiform Loewenfeld","3.3.12","Google_1_Viola Sorrell_9_oval.jpg","0","1","1","1","1","1","1","NA","836.5631999913603","18178.486399992835","9841.03710000636","9351.66479999316","5396.691800007829","1225.7022999983747","NA","836.5631999913603","25436.359700004687","1","5","2","psycho","1024","2","48000","-16","experiment","3038","even","220354.56649999833","219742.02140000125","NA","104968.37750000122","NA","NA","NA","NA","69156.26570000313","NA","3166.820300000836","220863.00290000509","218729.52470000018","13028.575500007719","3174.043699997128","70167.33110000496","31218.36389999953","64974.02179999335","67917.26489999564","65985.48449999362","67196.59110000066","NA","67706.20410000265","67917.1975000063","222011.25850000244","36615.40340000647","64964.72249999351","221174.1658999963","221174.23580000468","218718.1075999979","79531.59199999936","79531.53710000333","Face Interval Estimation","0","57261.77290001942","43","no","680"
"1","NA","0","undefined","undefined","5015.885713636883","5015.885713636883","#ADADAD","psycho","psycho","psycho","undefined","undefined","undefined","undefined","undefined","undefined","undefined","undefined","31","31","5","0","0","0","0","0","0","0","0","31","31","0","0","0","0","9","9","9","9","NA","9","9","34","0","9","31","31","31","3","0","Wed Jan 10 14:58:05 2024","The main experiment item","no","fmri_experiment_final.osexp","C:\TASKS\CNC\fCourse2024_Ctrack\cognition","no","mono","no","24","no","black","no","yes","768","Google_1_Harold Gravitt_1_oval.jpg","600","psycho","31","31","9","C:/TASKS/CNC/fCourse2024_Ctrack/cognition/subject-3038.csv","psycho","Lentiform Loewenfeld","3.3.12","Google_1_Viola Sorrell_9_oval.jpg","0","5","1","1","1","1","1","NA","163437.19850000343","18178.486399992835","9841.03710000636","9351.66479999316","5396.691800007829","1225.7022999983747","NA","836.5631999913603","163437.19850000343","1","5","2","psycho","1024","2","48000","-16","experiment","3038","even","220354.56649999833","219742.02140000125","222026.7055000004","104968.37750000122","NA","NA","NA","NA","69156.26570000313","NA","3166.820300000836","220863.00290000509","218729.52470000018","13028.575500007719","3174.043699997128","70167.33110000496","31218.36389999953","64974.02179999335","67917.26489999564","65985.48449999362","67196.59110000066","NA","67706.20410000265","67917.1975000063","242969.23360000073","36615.40340000647","64964.72249999351","221174.1658999963","221174.23580000468","218718.1075999979","79531.59199999936","79531.53710000333","Face Interval Estimation","0","220698.97140002286","44","no","680"
"0","NA","1","undefined","undefined","4925.414586667385","4925.414586667385","#ADADAD","psycho","psycho","psycho","undefined","undefined","undefined","undefined","undefined","undefined","undefined","undefined","32","32","5","0","0","0","0","0","0","0","0","32","32","0","0","0","0","9","9","9","9","NA","9","9","35","0","9","32","32","32","3","0","Wed Jan 10 14:58:05 2024","The main experiment item","no","fmri_experiment_final.osexp","C:\TASKS\CNC\fCourse2024_Ctrack\cognition","no","mono","no","24","no","black","no","yes","768","Google_1_Roy Bieber_7_oval.jpg","1200","psycho","0","31","9","C:/TASKS/CNC/fCourse2024_Ctrack/cognition/subject-3038.csv","psycho","Lentiform Loewenfeld","3.3.12","Google_1_Roy Bieber_7_oval.jpg","0","1","1","1","1","1","1","NA","944.6850000094855","18178.486399992835","9841.03710000636","9351.66479999316","5396.691800007829","1225.7022999983747","NA","944.6850000094855","163437.19850000343","1","5","2","psycho","1024","2","48000","-16","experiment","3038","even","245253.78810000257","244042.5047000026","222026.7055000004","104968.37750000122","242971.97210000013","NA","NA","NA","69156.26570000313","NA","3166.820300000836","245762.99420000578","243030.37710000353","13028.575500007719","3174.043699997128","70167.33110000496","31218.36389999953","64974.02179999335","67917.26489999564","65985.48449999362","67196.59110000066","NA","67706.20410000265","67917.1975000063","247018.11449999514","36615.40340000647","64964.72249999351","246072.95729999896","246073.02399999753","243019.44400000502","79531.59199999936","79531.53710000333","Face Interval Estimation","0","221643.65640003234","45","no","680"
"1","NA","0","undefined","undefined","4827.218732609333","4827.218732609333","#ADADAD","psycho","psycho","psycho","undefined","undefined","undefined","undefined","undefined","undefined","undefined","undefined","33","33","5","0","0","0","0","0","0","0","0","33","33","0","0","0","0","9","9","9","9","NA","9","9","36","0","9","33","33","33","3","0","Wed Jan 10 14:58:05 2024","The main experiment item","no","fmri_experiment_final.osexp","C:\TASKS\CNC\fCourse2024_Ctrack\cognition","no","mono","no","24","no","black","no","yes","768","Google_1_Jonathan Marek_5_oval.jpg","600","psycho","1","31","9","C:/TASKS/CNC/fCourse2024_Ctrack/cognition/subject-3038.csv","psycho","Lentiform Loewenfeld","3.3.12","Google_1_Barbara Zimmerman_2_oval.jpg","0","1","1","1","1","1","1","NA","408.4052999969572","18178.486399992835","9841.03710000636","9351.66479999316","5396.691800007829","1225.7022999983747","NA","408.4052999969572","163437.19850000343","1","5","2","psycho","1024","2","48000","-16","experiment","3038","even","248700.63039999513","248090.90559999458","222026.7055000004","104968.37750000122","242971.97210000013","NA","NA","NA","69156.26570000313","NA","3166.820300000836","249211.39579999726","247080.2049000049","13028.575500007719","3174.043699997128","70167.33110000496","31218.36389999953","64974.02179999335","67917.26489999564","65985.48449999362","67196.59110000066","NA","67706.20410000265","67917.1975000063","249930.25429999398","36615.40340000647","64964.72249999351","249521.30370000668","249521.3800000056","247068.08690000616","79531.59199999936","79531.53710000333","Face Interval Estimation","0","222052.0617000293","46","no","680"
"0","NA","0","undefined","undefined","4729.915048936667","4729.915048936667","#ADADAD","psycho","psycho","psycho","undefined","undefined","undefined","undefined","undefined","undefined","undefined","undefined","34","34","5","0","0","0","0","0","0","0","0","34","34","0","0","0","0","9","9","9","9","NA","9","9","37","0","9","34","34","34","3","0","Wed Jan 10 14:58:05 2024","The main experiment item","no","fmri_experiment_final.osexp","C:\TASKS\CNC\fCourse2024_Ctrack\cognition","no","mono","no","24","no","black","no","yes","768","Google_1_Paula Faber_15_oval.jpg","600","psycho","2","31","9","C:/TASKS/CNC/fCourse2024_Ctrack/cognition/subject-3038.csv","psycho","Lentiform Loewenfeld","3.3.12","Google_1_Jeffery Rosenberg_18_oval.jpg","0","1","1","1","1","1","1","NA","253.9455999940401","18178.486399992835","9841.03710000636","9351.66479999316","5396.691800007829","1225.7022999983747","NA","253.9455999940401","163437.19850000343","1","5","2","psycho","1024","2","48000","-16","experiment","3038","even","251612.99249999865","251001.70470000012","222026.7055000004","104968.37750000122","242971.97210000013","NA","NA","NA","69156.26570000313","NA","3166.820300000836","252123.4994999977","249991.18369999633","13028.575500007719","3174.043699997128","70167.33110000496","31218.36389999953","64974.02179999335","67917.26489999564","65985.48449999362","67196.59110000066","NA","67706.20410000265","67917.1975000063","252689.25710000622","36615.40340000647","64964.72249999351","252434.75830000534","252434.82870000298","249979.4236000016","79531.59199999936","79531.53710000333","Face Interval Estimation","0","222306.00730002334","47","no","680"
"1","NA","1","undefined","undefined","4641.8404916670015","4641.8404916670015","#ADADAD","psycho","psycho","psycho","undefined","undefined","undefined","undefined","undefined","undefined","undefined","undefined","35","35","5","0","0","0","0","0","0","0","0","35","35","0","0","0","0","9","9","9","9","NA","9","9","38","0","9","35","35","35","3","0","Wed Jan 10 14:58:05 2024","The main experiment item","no","fmri_experiment_final.osexp","C:\TASKS\CNC\fCourse2024_Ctrack\cognition","no","mono","no","24","no","black","no","yes","768","Google_1_Janie Butcher_3_oval.jpg","1200","psycho","3","31","9","C:/TASKS/CNC/fCourse2024_Ctrack/cognition/subject-3038.csv","psycho","Lentiform Loewenfeld","3.3.12","Google_1_Janie Butcher_3_oval.jpg","0","1","1","1","1","1","1","NA","502.33629999274854","18178.486399992835","9841.03710000636","9351.66479999316","5396.691800007829","1225.7022999983747","NA","502.33629999274854","163437.19850000343","1","5","2","psycho","1024","2","48000","-16","experiment","3038","even","254970.364599998","253758.16029999987","222026.7055000004","104968.37750000122","242971.97210000013","NA","NA","NA","69156.26570000313","NA","3166.820300000836","255481.6998000024","252748.81960000494","13028.575500007719","3174.043699997128","70167.33110000496","31218.36389999953","64974.02179999335","67917.26489999564","65985.48449999362","67196.59110000066","NA","67706.20410000265","67917.1975000063","256294.22150000755","36615.40340000647","64964.72249999351","255791.3600000029","255791.42940000747","252736.5376999951","79531.59199999936","79531.53710000333","Face Interval Estimation","0","222808.3436000161","48","no","680"
"0","NA","0","undefined","undefined","4559.976277551293","4559.976277551293","#ADADAD","psycho","psycho","psycho","undefined","undefined","undefined","undefined","undefined","undefined","undefined","undefined","36","36","5","0","0","0","0","0","0","0","0","36","36","0","0","0","0","9","9","9","9","NA","9","9","39","0","9","36","36","36","3","0","Wed Jan 10 14:58:05 2024","The main experiment item","no","fmri_experiment_final.osexp","C:\TASKS\CNC\fCourse2024_Ctrack\cognition","no","mono","no","24","no","black","no","yes","768","Alan_Gamerson_7_oval.jpg","600","psycho","4","31","9","C:/TASKS/CNC/fCourse2024_Ctrack/cognition/subject-3038.csv","psycho","Lentiform Loewenfeld","3.3.12","Google_1_David Prosser_18_oval.jpg","0","1","1","1","1","1","1","NA","630.4939999972703","18178.486399992835","9841.03710000636","9351.66479999316","5396.691800007829","1225.7022999983747","NA","630.4939999972703","163437.19850000343","1","5","2","psycho","1024","2","48000","-16","experiment","3038","even","257979.4630999968","257369.16260000726","222026.7055000004","104968.37750000122","242971.97210000013","NA","NA","NA","69156.26570000313","NA","3166.820300000836","258490.72719999822","256357.3355999979","13028.575500007719","3174.043699997128","70167.33110000496","31218.36389999953","64974.02179999335","67917.26489999564","65985.48449999362","67196.59110000066","NA","67706.20410000265","67917.1975000063","259432.2436000075","36615.40340000647","64964.72249999351","258801.12689999805","258801.19680000644","256344.37930000422","79531.59199999936","79531.53710000333","Face Interval Estimation","0","223438.83760001336","49","no","680"
"0","NA","1","undefined","undefined","4473.03046200017","4473.03046200017","#ADADAD","psycho","psycho","psycho","undefined","undefined","undefined","undefined","undefined","undefined","undefined","undefined","37","37","5","0","0","0","0","0","0","0","0","37","37","0","0","0","0","9","9","9","9","NA","9","9","40","0","9","37","37","37","3","0","Wed Jan 10 14:58:05 2024","The main experiment item","no","fmri_experiment_final.osexp","C:\TASKS\CNC\fCourse2024_Ctrack\cognition","no","mono","no","24","no","black","no","yes","768","Google_1_Larry Atwater_3_oval.jpg","600","psycho","5","31","9","C:/TASKS/CNC/fCourse2024_Ctrack/cognition/subject-3038.csv","psycho","Lentiform Loewenfeld","3.3.12","Google_1_Larry Atwater_3_oval.jpg","0","1","1","1","1","1","1","NA","212.68549999513198","18178.486399992835","9841.03710000636","9351.66479999316","5396.691800007829","1225.7022999983747","NA","212.68549999513198","163437.19850000343","1","5","2","psycho","1024","2","48000","-16","experiment","3038","even","261116.76659999648","260506.40420000127","222026.7055000004","104968.37750000122","242971.97210000013","NA","NA","NA","69156.26570000313","NA","3166.820300000836","261626.7399000062","259494.4722999935","13028.575500007719","3174.043699997128","70167.33110000496","31218.36389999953","64974.02179999335","67917.26489999564","65985.48449999362","67196.59110000066","NA","67706.20410000265","67917.1975000063","262152.2327999992","36615.40340000647","64964.72249999351","261939.00009999925","261939.07170000602","259482.62130000512","79531.59199999936","79531.53710000333","Face Interval Estimation","0","223651.5231000085","50","no","680"
"1","NA","1","undefined","undefined","4396.039396078741","4396.039396078741","#ADADAD","psycho","psycho","psycho","undefined","undefined","undefined","undefined","undefined","undefined","undefined","undefined","38","38","5","0","0","0","0","0","0","0","0","38","38","0","0","0","0","9","9","9","9","NA","9","9","41","0","9","38","38","38","3","0","Wed Jan 10 14:58:05 2024","The main experiment item","no","fmri_experiment_final.osexp","C:\TASKS\CNC\fCourse2024_Ctrack\cognition","no","mono","no","24","no","black","no","yes","768","Google_1_Steve Moyers_19_oval.jpg","1200","psycho","6","31","9","C:/TASKS/CNC/fCourse2024_Ctrack/cognition/subject-3038.csv","psycho","Lentiform Loewenfeld","3.3.12","Google_1_Steve Moyers_19_oval.jpg","0","1","1","1","1","1","1","NA","546.4861000073142","18178.486399992835","9841.03710000636","9351.66479999316","5396.691800007829","1225.7022999983747","NA","546.4861000073142","163437.19850000343","1","5","2","psycho","1024","2","48000","-16","experiment","3038","even","264435.7375999971","263224.2266999965","222026.7055000004","104968.37750000122","242971.97210000013","NA","NA","NA","69156.26570000313","NA","3166.820300000836","264944.26780000504","262212.42870000424","13028.575500007719","3174.043699997128","70167.33110000496","31218.36389999953","64974.02179999335","67917.26489999564","65985.48449999362","67196.59110000066","NA","67706.20410000265","67917.1975000063","265803.35200000263","36615.40340000647","64964.72249999351","265256.2009999965","265256.2756999978","262201.40760000504","79531.59199999936","79531.53710000333","Face Interval Estimation","0","224198.0092000158","51","no","680"
"1","NA","0","undefined","undefined","4322.315328846274","4322.315328846274","#ADADAD","psycho","psycho","psycho","undefined","undefined","undefined","undefined","undefined","undefined","undefined","undefined","39","39","5","0","0","0","0","0","0","0","0","39","39","0","0","0","0","9","9","9","9","NA","9","9","42","0","9","39","39","39","3","0","Wed Jan 10 14:58:05 2024","The main experiment item","no","fmri_experiment_final.osexp","C:\TASKS\CNC\fCourse2024_Ctrack\cognition","no","mono","no","24","no","black","no","yes","768","Google_1_Margaret Wilkerson_3_oval.jpg","800","psycho","7","31","9","C:/TASKS/CNC/fCourse2024_Ctrack/cognition/subject-3038.csv","psycho","Lentiform Loewenfeld","3.3.12","Google_1_Shawn Walling_3_oval.jpg","0","1","1","1","1","1","1","NA","562.3878999904264","18178.486399992835","9841.03710000636","9351.66479999316","5396.691800007829","1225.7022999983747","NA","562.3878999904264","163437.19850000343","1","5","2","psycho","1024","2","48000","-16","experiment","3038","even","267689.42799999786","266876.15120000555","222026.7055000004","104968.37750000122","242971.97210000013","NA","NA","NA","69156.26570000313","NA","3166.820300000836","268198.49959999556","265865.31219999597","13028.575500007719","3174.043699997128","70167.33110000496","31218.36389999953","64974.02179999335","67917.26489999564","65985.48449999362","67196.59110000066","NA","67706.20410000265","67917.1975000063","269072.2750999994","36615.40340000647","64964.72249999351","268509.24010000017","268509.3113000039","265854.32880000735","79531.59199999936","79531.53710000333","Face Interval Estimation","0","224760.39710000623","52","no","680"
"0","NA","1","undefined","undefined","4256.612509434147","4256.612509434147","#ADADAD","psycho","psycho","psycho","undefined","undefined","undefined","undefined","undefined","undefined","undefined","undefined","40","40","5","0","0","0","0","0","0","0","0","40","40","0","0","0","0","9","9","9","9","NA","9","9","43","0","9","40","40","40","3","0","Wed Jan 10 14:58:05 2024","The main experiment item","no","fmri_experiment_final.osexp","C:\TASKS\CNC\fCourse2024_Ctrack\cognition","no","mono","no","24","no","black","no","yes","768","Google_1_Jerry Keane_3_oval.jpg","1000","psycho","8","31","9","C:/TASKS/CNC/fCourse2024_Ctrack/cognition/subject-3038.csv","psycho","Lentiform Loewenfeld","3.3.12","Google_1_Jerry Keane_3_oval.jpg","0","1","1","1","1","1","1","NA","840.0659000035375","18178.486399992835","9841.03710000636","9351.66479999316","5396.691800007829","1225.7022999983747","NA","840.0659000035375","163437.19850000343","1","5","2","psycho","1024","2","48000","-16","experiment","3038","even","271157.0481999952","270145.72830000543","222026.7055000004","104968.37750000122","242971.97210000013","NA","NA","NA","69156.26570000313","NA","3166.820300000836","271666.8221","269134.4604000042","13028.575500007719","3174.043699997128","70167.33110000496","31218.36389999953","64974.02179999335","67917.26489999564","65985.48449999362","67196.59110000066","NA","67706.20410000265","67917.1975000063","272817.27410000167","36615.40340000647","64964.72249999351","271976.62420000415","271976.6982000001","269122.81800000346","79531.59199999936","79531.53710000333","Face Interval Estimation","0","225600.46300000977","53","no","680"
"0","NA","0","undefined","undefined","4192.559981481517","4192.559981481517","#ADADAD","psycho","psycho","psycho","undefined","undefined","undefined","undefined","undefined","undefined","undefined","undefined","41","41","5","0","0","0","0","0","0","0","0","41","41","0","0","0","0","9","9","9","9","NA","9","9","44","0","9","41","41","41","3","0","Wed Jan 10 14:58:05 2024","The main experiment item","no","fmri_experiment_final.osexp","C:\TASKS\CNC\fCourse2024_Ctrack\cognition","no","mono","no","24","no","black","no","yes","768","Google_1_Sara Claytor_7_oval.jpg","600","psycho","9","31","9","C:/TASKS/CNC/fCourse2024_Ctrack/cognition/subject-3038.csv","psycho","Lentiform Loewenfeld","3.3.12","Google_1_Carolyn Kiley_3_oval.jpg","0","1","1","1","1","1","1","NA","797.7759999921545","18178.486399992835","9841.03710000636","9351.66479999316","5396.691800007829","1225.7022999983747","NA","797.7759999921545","163437.19850000343","1","5","2","psycho","1024","2","48000","-16","experiment","3038","even","274497.5560000021","273886.33310000296","222026.7055000004","104968.37750000122","242971.97210000013","NA","NA","NA","69156.26570000313","NA","3166.820300000836","275007.0001999993","272875.82719999773","13028.575500007719","3174.043699997128","70167.33110000496","31218.36389999953","64974.02179999335","67917.26489999564","65985.48449999362","67196.59110000066","NA","67706.20410000265","67917.1975000063","276117.2529000032","36615.40340000647","64964.72249999351","275318.8835000037","275318.95640000585","272864.7106999997","79531.59199999936","79531.53710000333","Face Interval Estimation","0","226398.23900000192","54","no","680"
"1","NA","1","undefined","undefined","4129.786658181745","4129.786658181745","#ADADAD","psycho","psycho","psycho","undefined","undefined","undefined","undefined","undefined","undefined","undefined","undefined","42","42","5","0","0","0","0","0","0","0","0","42","42","0","0","0","0","9","9","9","9","NA","9","9","45","0","9","42","42","42","3","0","Wed Jan 10 14:58:05 2024","The main experiment item","no","fmri_experiment_final.osexp","C:\TASKS\CNC\fCourse2024_Ctrack\cognition","no","mono","no","24","no","black","no","yes","768","Google_1_Melissa Cushing_19_oval.jpg","1000","psycho","10","31","9","C:/TASKS/CNC/fCourse2024_Ctrack/cognition/subject-3038.csv","psycho","Lentiform Loewenfeld","3.3.12","Google_1_Melissa Cushing_19_oval.jpg","0","1","1","1","1","1","1","NA","740.0271999940742","18178.486399992835","9841.03710000636","9351.66479999316","5396.691800007829","1225.7022999983747","NA","740.0271999940742","163437.19850000343","1","5","2","psycho","1024","2","48000","-16","experiment","3038","even","278217.52879999985","277205.7024999958","222026.7055000004","104968.37750000122","242971.97210000013","NA","NA","NA","69156.26570000313","NA","3166.820300000836","278726.8738999992","276195.11250000505","13028.575500007719","3174.043699997128","70167.33110000496","31218.36389999953","64974.02179999335","67917.26489999564","65985.48449999362","67196.59110000066","NA","67706.20410000265","67917.1975000063","279779.23650000594","36615.40340000647","64964.72249999351","279038.6384000012","279038.7117000064","276184.12140000146","79531.59199999936","79531.53710000333","Face Interval Estimation","0","227138.266199996","55","no","680"
"1","NA","0","undefined","undefined","4063.3045785715303","4063.3045785715303","#ADADAD","psycho","psycho","psycho","undefined","undefined","undefined","undefined","undefined","undefined","undefined","undefined","43","43","5","0","0","0","0","0","0","0","0","43","43","0","0","0","0","9","9","9","9","NA","9","9","46","0","9","43","43","43","3","0","Wed Jan 10 14:58:05 2024","The main experiment item","no","fmri_experiment_final.osexp","C:\TASKS\CNC\fCourse2024_Ctrack\cognition","no","mono","no","24","no","black","no","yes","768","Google_1_Joshua Guido_13_oval.jpg","600","psycho","11","31","9","C:/TASKS/CNC/fCourse2024_Ctrack/cognition/subject-3038.csv","psycho","Lentiform Loewenfeld","3.3.12","Google_1_Peter Mcclary_13_oval.jpg","0","1","1","1","1","1","1","NA","406.7902000097092","18178.486399992835","9841.03710000636","9351.66479999316","5396.691800007829","1225.7022999983747","NA","406.7902000097092","163437.19850000343","1","5","2","psycho","1024","2","48000","-16","experiment","3038","even","281465.26870000525","280854.60229999444","222026.7055000004","104968.37750000122","242971.97210000013","NA","NA","NA","69156.26570000313","NA","3166.820300000836","281975.7482999994","279841.94490000664","13028.575500007719","3174.043699997128","70167.33110000496","31218.36389999953","64974.02179999335","67917.26489999564","65985.48449999362","67196.59110000066","NA","67706.20410000265","67917.1975000063","282694.31419999455","36615.40340000647","64964.72249999351","282286.8753000075","282286.9464999967","279829.71910000197","79531.59199999936","79531.53710000333","Face Interval Estimation","0","227545.0564000057","56","no","680"
"0","NA","1","undefined","undefined","4000.6294245614667","4000.6294245614667","#ADADAD","psycho","psycho","psycho","undefined","undefined","undefined","undefined","undefined","undefined","undefined","undefined","44","44","5","0","0","0","0","0","0","0","0","44","44","0","0","0","0","9","9","9","9","NA","9","9","47","0","9","44","44","44","3","0","Wed Jan 10 14:58:05 2024","The main experiment item","no","fmri_experiment_final.osexp","C:\TASKS\CNC\fCourse2024_Ctrack\cognition","no","mono","no","24","no","black","no","yes","768","Google_1_Anthony Riddell_7_oval.jpg","1200","psycho","12","31","9","C:/TASKS/CNC/fCourse2024_Ctrack/cognition/subject-3038.csv","psycho","Lentiform Loewenfeld","3.3.12","Google_1_Anthony Riddell_7_oval.jpg","0","1","1","1","1","1","1","NA","490.8207999978913","18178.486399992835","9841.03710000636","9351.66479999316","5396.691800007829","1225.7022999983747","NA","490.8207999978913","163437.19850000343","1","5","2","psycho","1024","2","48000","-16","experiment","3038","even","284976.5133000037","283766.28009999695","222026.7055000004","104968.37750000122","242971.97210000013","NA","NA","NA","69156.26570000313","NA","3166.820300000836","285487.61419999937","282756.98150000244","13028.575500007719","3174.043699997128","70167.33110000496","31218.36389999953","64974.02179999335","67917.26489999564","65985.48449999362","67196.59110000066","NA","67706.20410000265","67917.1975000063","286288.27459999593","36615.40340000647","64964.72249999351","285796.8075999961","285796.8808000005","282742.9642000061","79531.59199999936","79531.53710000333","Face Interval Estimation","0","228035.8772000036","57","no","680"
"0","NA","1","undefined","undefined","3943.509660344842","3943.509660344842","#ADADAD","psycho","psycho","psycho","undefined","undefined","undefined","undefined","undefined","undefined","undefined","undefined","45","45","5","0","0","0","0","0","0","0","0","45","45","0","0","0","0","9","9","9","9","NA","9","9","48","0","9","45","45","45","3","0","Wed Jan 10 14:58:05 2024","The main experiment item","no","fmri_experiment_final.osexp","C:\TASKS\CNC\fCourse2024_Ctrack\cognition","no","mono","no","24","no","black","no","yes","768","Google_1_Victor Potter_13_oval.jpg","800","psycho","13","31","9","C:/TASKS/CNC/fCourse2024_Ctrack/cognition/subject-3038.csv","psycho","Lentiform Loewenfeld","3.3.12","Google_1_Victor Potter_13_oval.jpg","0","1","1","1","1","1","1","NA","687.6830999972299","18178.486399992835","9841.03710000636","9351.66479999316","5396.691800007829","1225.7022999983747","NA","687.6830999972299","163437.19850000343","1","5","2","psycho","1024","2","48000","-16","experiment","3038","even","288175.058599998","287360.98100000527","222026.7055000004","104968.37750000122","242971.97210000013","NA","NA","NA","69156.26570000313","NA","3166.820300000836","288685.12989999726","286350.24970000086","13028.575500007719","3174.043699997128","70167.33110000496","31218.36389999953","64974.02179999335","67917.26489999564","65985.48449999362","67196.59110000066","NA","67706.20410000265","67917.1975000063","289684.1998000018","36615.40340000647","64964.72249999351","288995.8792999969","288996.02950000553","286338.70999999635","79531.59199999936","79531.53710000333","Face Interval Estimation","0","228723.56030000083","58","no","680"
"1","NA","1","undefined","undefined","3892.0730254237965","3892.0730254237965","#ADADAD","psycho","psycho","psycho","undefined","undefined","undefined","undefined","undefined","undefined","undefined","undefined","46","46","5","0","0","0","0","0","0","0","0","46","46","0","0","0","0","9","9","9","9","NA","9","9","49","0","9","46","46","46","3","0","Wed Jan 10 14:58:05 2024","The main experiment item","no","fmri_experiment_final.osexp","C:\TASKS\CNC\fCourse2024_Ctrack\cognition","no","mono","no","24","no","black","no","yes","768","Google_1_Gwendolyn Vance_152_oval.jpg","1200","psycho","14","31","9","C:/TASKS/CNC/fCourse2024_Ctrack/cognition/subject-3038.csv","psycho","Lentiform Loewenfeld","3.3.12","Google_1_Gwendolyn Vance_152_oval.jpg","0","1","1","1","1","1","1","NA","908.7482000031741","18178.486399992835","9841.03710000636","9351.66479999316","5396.691800007829","1225.7022999983747","NA","908.7482000031741","163437.19850000343","1","5","2","psycho","1024","2","48000","-16","experiment","3038","even","291966.0705999995","290755.88419999985","222026.7055000004","104968.37750000122","242971.97210000013","NA","NA","NA","69156.26570000313","NA","3166.820300000836","292475.1995999977","289746.41059999703","13028.575500007719","3174.043699997128","70167.33110000496","31218.36389999953","64974.02179999335","67917.26489999564","65985.48449999362","67196.59110000066","NA","67706.20410000265","67917.1975000063","293695.1931999938","36615.40340000647","64964.72249999351","292785.8669999987","292785.9390999947","289734.5006999967","79531.59199999936","79531.53710000333","Face Interval Estimation","0","229632.308500004","59","no","680"
"0","NA","1","undefined","undefined","3831.507581666665","3831.507581666665","#ADADAD","psycho","psycho","psycho","undefined","undefined","undefined","undefined","undefined","undefined","undefined","undefined","47","47","5","0","0","0","0","0","0","0","0","47","47","0","0","0","0","9","9","9","9","NA","9","9","50","0","9","47","47","47","3","0","Wed Jan 10 14:58:05 2024","The main experiment item","no","fmri_experiment_final.osexp","C:\TASKS\CNC\fCourse2024_Ctrack\cognition","no","mono","no","24","no","black","no","yes","768","Google_1_Arthur Featherstone_1_oval.jpg","600","psycho","15","31","9","C:/TASKS/CNC/fCourse2024_Ctrack/cognition/subject-3038.csv","psycho","Lentiform Loewenfeld","3.3.12","Google_1_Arthur Featherstone_1_oval.jpg","0","1","1","1","1","1","1","NA","258.14639999589417","18178.486399992835","9841.03710000636","9351.66479999316","5396.691800007829","1225.7022999983747","NA","258.14639999589417","163437.19850000343","1","5","2","psycho","1024","2","48000","-16","experiment","3038","even","295380.69609999366","294770.1357000042","222026.7055000004","104968.37750000122","242971.97210000013","NA","NA","NA","69156.26570000313","NA","3166.820300000836","295890.6207999971","293759.5891999954","13028.575500007719","3174.043699997128","70167.33110000496","31218.36389999953","64974.02179999335","67917.26489999564","65985.48449999362","67196.59110000066","NA","67706.20410000265","67917.1975000063","296461.3052000059","36615.40340000647","64964.72249999351","296202.4942999997","296202.56150000205","293747.6846000063","79531.59199999936","79531.53710000333","Face Interval Estimation","0","229890.4548999999","60","no","680"
"1","NA","0","undefined","undefined","3780.9264934426137","3780.9264934426137","#ADADAD","psycho","psycho","psycho","undefined","undefined","undefined","undefined","undefined","undefined","undefined","undefined","48","48","5","0","0","0","0","0","0","0","0","48","48","0","0","0","0","9","9","9","9","NA","9","9","51","0","9","48","48","48","3","0","Wed Jan 10 14:58:05 2024","The main experiment item","no","fmri_experiment_final.osexp","C:\TASKS\CNC\fCourse2024_Ctrack\cognition","no","mono","no","24","no","black","no","yes","768","Google_1_George Baum_1_oval.jpg","1000","psycho","16","31","9","C:/TASKS/CNC/fCourse2024_Ctrack/cognition/subject-3038.csv","psycho","Lentiform Loewenfeld","3.3.12","Google_1_Henry Dominguez_9_oval.jpg","0","1","1","1","1","1","1","NA","746.0611999995308","18178.486399992835","9841.03710000636","9351.66479999316","5396.691800007829","1225.7022999983747","NA","746.0611999995308","163437.19850000343","1","5","2","psycho","1024","2","48000","-16","experiment","3038","even","298544.2844000063","297534.58249999676","222026.7055000004","104968.37750000122","242971.97210000013","NA","NA","NA","69156.26570000313","NA","3166.820300000836","299055.08000000555","296523.1389999972","13028.575500007719","3174.043699997128","70167.33110000496","31218.36389999953","64974.02179999335","67917.26489999564","65985.48449999362","67196.59110000066","NA","67706.20410000265","67917.1975000063","300113.4066999948","36615.40340000647","64964.72249999351","299366.692399999","299366.76689999877","296510.76429999375","79531.59199999936","79531.53710000333","Face Interval Estimation","0","230636.51609999943","61","no","680"
"0","NA","0","undefined","undefined","3731.2999338708673","3731.2999338708673","#ADADAD","psycho","psycho","psycho","undefined","undefined","undefined","undefined","undefined","undefined","undefined","undefined","49","49","5","0","0","0","0","0","0","0","0","49","49","0","0","0","0","9","9","9","9","NA","9","9","52","0","9","49","49","49","3","0","Wed Jan 10 14:58:05 2024","The main experiment item","no","fmri_experiment_final.osexp","C:\TASKS\CNC\fCourse2024_Ctrack\cognition","no","mono","no","24","no","black","no","yes","768","Google_1_Sara Guajardo_1_oval.jpg","600","psycho","17","31","9","C:/TASKS/CNC/fCourse2024_Ctrack/cognition/subject-3038.csv","psycho","Lentiform Loewenfeld","3.3.12","Google_1_Ramona Thornburg_1_oval.jpg","0","1","1","1","1","1","1","NA","704.0797999943607","18178.486399992835","9841.03710000636","9351.66479999316","5396.691800007829","1225.7022999983747","NA","704.0797999943607","163437.19850000343","1","5","2","psycho","1024","2","48000","-16","experiment","3038","even","301846.1177999998","301236.201599997","222026.7055000004","104968.37750000122","242971.97210000013","NA","NA","NA","69156.26570000313","NA","3166.820300000836","302357.3044999939","300175.8442999999","13028.575500007719","3174.043699997128","70167.33110000496","31218.36389999953","64974.02179999335","67917.26489999564","65985.48449999362","67196.59110000066","NA","67706.20410000265","67917.1975000063","303373.1942000013","36615.40340000647","64964.72249999351","302668.5071999964","302668.5878999997","300163.82200000226","79531.59199999936","79531.53710000333","Face Interval Estimation","0","231340.5958999938","62","no","680"
"1","NA","1","undefined","undefined","3676.334166666493","3676.334166666493","#ADADAD","psycho","psycho","psycho","undefined","undefined","undefined","undefined","undefined","undefined","undefined","undefined","50","50","5","0","0","0","0","0","0","0","0","50","50","0","0","0","0","9","9","9","9","NA","9","9","53","0","9","50","50","50","3","0","Wed Jan 10 14:58:05 2024","The main experiment item","no","fmri_experiment_final.osexp","C:\TASKS\CNC\fCourse2024_Ctrack\cognition","no","mono","no","24","no","black","no","yes","768","Google_1_Sean Revels_7_oval.jpg","600","psycho","18","31","9","C:/TASKS/CNC/fCourse2024_Ctrack/cognition/subject-3038.csv","psycho","Lentiform Loewenfeld","3.3.12","Google_1_Sean Revels_7_oval.jpg","0","1","1","1","1","1","1","NA","268.45659999526106","18178.486399992835","9841.03710000636","9351.66479999316","5396.691800007829","1225.7022999983747","NA","268.45659999526106","163437.19850000343","1","5","2","psycho","1024","2","48000","-16","experiment","3038","even","305058.82560000464","304447.64040000155","222026.7055000004","104968.37750000122","242971.97210000013","NA","NA","NA","69156.26570000313","NA","3166.820300000836","305570.73809999565","303438.71539999964","13028.575500007719","3174.043699997128","70167.33110000496","31218.36389999953","64974.02179999335","67917.26489999564","65985.48449999362","67196.59110000066","NA","67706.20410000265","67917.1975000063","306149.2444000032","36615.40340000647","64964.72249999351","305880.1839999942","305880.24810000206","303424.40990000614","79531.59199999936","79531.53710000333","Face Interval Estimation","0","231609.05249998905","63","no","680"
"1","NA","1","undefined","undefined","3620.8756953124066","3620.8756953124066","#ADADAD","psycho","psycho","psycho","undefined","undefined","undefined","undefined","undefined","undefined","undefined","undefined","51","51","5","0","0","0","0","0","0","0","0","51","51","0","0","0","0","9","9","9","9","NA","9","9","54","0","9","51","51","51","3","0","Wed Jan 10 14:58:05 2024","The main experiment item","no","fmri_experiment_final.osexp","C:\TASKS\CNC\fCourse2024_Ctrack\cognition","no","mono","no","24","no","black","no","yes","768","Brandon_Kunkel_9_oval.jpg","1000","psycho","19","31","9","C:/TASKS/CNC/fCourse2024_Ctrack/cognition/subject-3038.csv","psycho","Lentiform Loewenfeld","3.3.12","Brandon_Kunkel_9_oval.jpg","0","1","1","1","1","1","1","NA","126.99200000497513","18178.486399992835","9841.03710000636","9351.66479999316","5396.691800007829","1225.7022999983747","NA","126.99200000497513","163437.19850000343","1","5","2","psycho","1024","2","48000","-16","experiment","3038","even","308251.262100006","307240.2355999948","222026.7055000004","104968.37750000122","242971.97210000013","NA","NA","NA","69156.26570000313","NA","3166.820300000836","308761.1889999971","306228.7376000022","13028.575500007719","3174.043699997128","70167.33110000496","31218.36389999953","64974.02179999335","67917.26489999564","65985.48449999362","67196.59110000066","NA","67706.20410000265","67917.1975000063","309199.46649999474","36615.40340000647","64964.72249999351","309071.6529000056","309071.72819999687","306217.20270000515","79531.59199999936","79531.53710000333","Face Interval Estimation","0","231736.04449999402","64","no","680"
"0","NA","1","undefined","undefined","3575.0719076922487","3575.0719076922487","#ADADAD","psycho","psycho","psycho","undefined","undefined","undefined","undefined","undefined","undefined","undefined","undefined","52","52","5","0","0","0","0","0","0","0","0","52","52","0","0","0","0","9","9","9","9","NA","9","9","55","0","9","52","52","52","3","0","Wed Jan 10 14:58:05 2024","The main experiment item","no","fmri_experiment_final.osexp","C:\TASKS\CNC\fCourse2024_Ctrack\cognition","no","mono","no","24","no","black","no","yes","768","Google_1_Sherri Vineyard_9_oval.jpg","600","psycho","20","31","9","C:/TASKS/CNC/fCourse2024_Ctrack/cognition/subject-3038.csv","psycho","Lentiform Loewenfeld","3.3.12","Google_1_Sherri Vineyard_9_oval.jpg","0","1","1","1","1","1","1","NA","643.6295000021346","18178.486399992835","9841.03710000636","9351.66479999316","5396.691800007829","1225.7022999983747","NA","643.6295000021346","163437.19850000343","1","5","2","psycho","1024","2","48000","-16","experiment","3038","even","310882.47719999345","310271.51229999436","222026.7055000004","104968.37750000122","242971.97210000013","NA","NA","NA","69156.26570000313","NA","3166.820300000836","311393.2122999977","309261.66920000105","13028.575500007719","3174.043699997128","70167.33110000496","31218.36389999953","64974.02179999335","67917.26489999564","65985.48449999362","67196.59110000066","NA","67706.20410000265","67917.1975000063","312348.24580000713","36615.40340000647","64964.72249999351","311704.0055999969","311704.0760999953","309249.4192000013","79531.59199999936","79531.53710000333","Face Interval Estimation","0","232379.67399999616","65","no","680"
"1","NA","0","undefined","undefined","3534.522846969511","3534.522846969511","#ADADAD","psycho","psycho","psycho","undefined","undefined","undefined","undefined","undefined","undefined","undefined","undefined","53","53","5","0","0","0","0","0","0","0","0","53","53","0","0","0","0","9","9","9","9","NA","9","9","56","0","9","53","53","53","3","0","Wed Jan 10 14:58:05 2024","The main experiment item","no","fmri_experiment_final.osexp","C:\TASKS\CNC\fCourse2024_Ctrack\cognition","no","mono","no","24","no","black","no","yes","768","Google_1_Stanley Easton_7_oval.jpg","1200","psycho","21","31","9","C:/TASKS/CNC/fCourse2024_Ctrack/cognition/subject-3038.csv","psycho","Lentiform Loewenfeld","3.3.12","Google_1_Sylvia Sprouse_11_oval.jpg","0","1","1","1","1","1","1","NA","898.8338999915868","18178.486399992835","9841.03710000636","9351.66479999316","5396.691800007829","1225.7022999983747","NA","898.8338999915868","163437.19850000343","1","5","2","psycho","1024","2","48000","-16","experiment","3038","even","314634.44300000265","313423.53","222026.7055000004","104968.37750000122","242971.97210000013","NA","NA","NA","69156.26570000313","NA","3166.820300000836","315143.78329999454","312414.25270000764","13028.575500007719","3174.043699997128","70167.33110000496","31218.36389999953","64974.02179999335","67917.26489999564","65985.48449999362","67196.59110000066","NA","67706.20410000265","67917.1975000063","316354.23110000556","36615.40340000647","64964.72249999351","315454.7791000077","315454.8550000036","312401.08739999414","79531.59199999936","79531.53710000333","Face Interval Estimation","0","233278.50789998774","66","no","680"
"1","NA","0","undefined","undefined","3493.0833567163227","3493.0833567163227","#ADADAD","psycho","psycho","psycho","undefined","undefined","undefined","undefined","undefined","undefined","undefined","undefined","54","54","5","0","0","0","0","0","0","0","0","54","54","0","0","0","0","9","9","9","9","NA","9","9","57","0","9","54","54","54","3","0","Wed Jan 10 14:58:05 2024","The main experiment item","no","fmri_experiment_final.osexp","C:\TASKS\CNC\fCourse2024_Ctrack\cognition","no","mono","no","24","no","black","no","yes","768","Google_1_Nicole Canada_3_oval.jpg","1000","psycho","22","31","9","C:/TASKS/CNC/fCourse2024_Ctrack/cognition/subject-3038.csv","psycho","Lentiform Loewenfeld","3.3.12","Google_1_Debra Jankowski_17_oval.jpg","0","1","1","1","1","1","1","NA","758.0770000058692","18178.486399992835","9841.03710000636","9351.66479999316","5396.691800007829","1225.7022999983747","NA","758.0770000058692","163437.19850000343","1","5","2","psycho","1024","2","48000","-16","experiment","3038","even","318438.07590000506","317427.2184000001","222026.7055000004","104968.37750000122","242971.97210000013","NA","NA","NA","69156.26570000313","NA","3166.820300000836","318947.68110000587","316418.66429999936","13028.575500007719","3174.043699997128","70167.33110000496","31218.36389999953","64974.02179999335","67917.26489999564","65985.48449999362","67196.59110000066","NA","67706.20410000265","67917.1975000063","320016.2651999999","36615.40340000647","64964.72249999351","319257.511799995","319257.5994999934","316405.09739999834","79531.59199999936","79531.53710000333","Face Interval Estimation","0","234036.5848999936","67","no","680"
"0","NA","0","undefined","undefined","3453.6572279411143","3453.6572279411143","#ADADAD","psycho","psycho","psycho","undefined","undefined","undefined","undefined","undefined","undefined","undefined","undefined","55","55","5","0","0","0","0","0","0","0","0","55","55","0","0","0","0","9","9","9","9","NA","9","9","58","0","9","55","55","55","3","0","Wed Jan 10 14:58:05 2024","The main experiment item","no","fmri_experiment_final.osexp","C:\TASKS\CNC\fCourse2024_Ctrack\cognition","no","mono","no","24","no","black","no","yes","768","Google_1_Kristen Barfield_15_oval.jpg","1200","psycho","23","31","9","C:/TASKS/CNC/fCourse2024_Ctrack/cognition/subject-3038.csv","psycho","Lentiform Loewenfeld","3.3.12","Adam_Koester_6_oval.jpg","0","1","1","1","1","1","1","NA","812.1066000021528","18178.486399992835","9841.03710000636","9351.66479999316","5396.691800007829","1225.7022999983747","NA","812.1066000021528","163437.19850000343","1","5","2","psycho","1024","2","48000","-16","experiment","3038","even","322301.8721999979","321088.831999994","222026.7055000004","104968.37750000122","242971.97210000013","NA","NA","NA","69156.26570000313","NA","3166.820300000836","322811.0760999989","320077.0838000026","13028.575500007719","3174.043699997128","70167.33110000496","31218.36389999953","64974.02179999335","67917.26489999564","65985.48449999362","67196.59110000066","NA","67706.20410000265","67917.1975000063","323935.215599995","36615.40340000647","64964.72249999351","323122.5048000051","323122.5715000037","320066.0785000073","79531.59199999936","79531.53710000333","Face Interval Estimation","0","234848.69149999577","68","no","680"
"0","NA","0","undefined","undefined","3413.9219260868613","3413.9219260868613","#ADADAD","psycho","psycho","psycho","undefined","undefined","undefined","undefined","undefined","undefined","undefined","undefined","56","56","5","0","0","0","0","0","0","0","0","56","56","0","0","0","0","9","9","9","9","NA","9","9","59","0","9","56","56","56","3","0","Wed Jan 10 14:58:05 2024","The main experiment item","no","fmri_experiment_final.osexp","C:\TASKS\CNC\fCourse2024_Ctrack\cognition","no","mono","no","24","no","black","no","yes","768","Google_1_Jeffrey Watson_1_oval.jpg","1200","psycho","24","31","9","C:/TASKS/CNC/fCourse2024_Ctrack/cognition/subject-3038.csv","psycho","Lentiform Loewenfeld","3.3.12","Google_1_Rosalie May_17_oval.jpg","0","1","1","1","1","1","1","NA","711.9213999976637","18178.486399992835","9841.03710000636","9351.66479999316","5396.691800007829","1225.7022999983747","NA","711.9213999976637","163437.19850000343","1","5","2","psycho","1024","2","48000","-16","experiment","3038","even","326217.64450000774","325006.584799994","222026.7055000004","104968.37750000122","242971.97210000013","NA","NA","NA","69156.26570000313","NA","3166.820300000836","326727.46039999765","323995.91070000315","13028.575500007719","3174.043699997128","70167.33110000496","31218.36389999953","64974.02179999335","67917.26489999564","65985.48449999362","67196.59110000066","NA","67706.20410000265","67917.1975000063","327751.21810000564","36615.40340000647","64964.72249999351","327038.6768000026","327038.7478000048","323984.6244000073","79531.59199999936","79531.53710000333","Face Interval Estimation","0","235560.61289999343","69","no","680"
"0","NA","1","undefined","undefined","3375.61810285697","3375.61810285697","#ADADAD","psycho","psycho","psycho","undefined","undefined","undefined","undefined","undefined","undefined","undefined","undefined","57","57","5","0","0","0","0","0","0","0","0","57","57","0","0","0","0","9","9","9","9","NA","9","9","60","0","9","57","57","57","3","0","Wed Jan 10 14:58:05 2024","The main experiment item","no","fmri_experiment_final.osexp","C:\TASKS\CNC\fCourse2024_Ctrack\cognition","no","mono","no","24","no","black","no","yes","768","Google_1_Philip Finkelstein_3_oval.jpg","800","psycho","25","31","9","C:/TASKS/CNC/fCourse2024_Ctrack/cognition/subject-3038.csv","psycho","Lentiform Loewenfeld","3.3.12","Google_1_Philip Finkelstein_3_oval.jpg","0","1","1","1","1","1","1","NA","732.654299994465","18178.486399992835","9841.03710000636","9351.66479999316","5396.691800007829","1225.7022999983747","NA","732.654299994465","163437.19850000343","1","5","2","psycho","1024","2","48000","-16","experiment","3038","even","329634.71749999735","328822.07310000376","222026.7055000004","104968.37750000122","242971.97210000013","NA","NA","NA","69156.26570000313","NA","3166.820300000836","330145.0552000024","327810.762299996","13028.575500007719","3174.043699997128","70167.33110000496","31218.36389999953","64974.02179999335","67917.26489999564","65985.48449999362","67196.59110000066","NA","67706.20410000265","67917.1975000063","331188.22490000457","36615.40340000647","64964.72249999351","330454.9432000058","330455.01600000716","327798.8239999977","79531.59199999936","79531.53710000333","Face Interval Estimation","0","236293.2671999879","70","no","680"
