"Memorable","Memorable_1","Repetition","acc","accuracy","average_response_time","avg_rt","background","canvas_backend","clock_backend","color_backend","correct","correct_instruction_2_sketchpad","correct_instructions_sketchpad","correct_keypress_practice_sketchpad","correct_new_1_sketchpad","correct_new_3_keyboard_response","correct_trial_keyboard_response","correct_trigger_scanner_keyboard_response","count_ISI_sketchpad","count_Sample_interval_sketchpad","count_baseline_block_sketchpad","count_block1_loop","count_block2_loop","count_block3_loop","count_block4_loop","count_block5_loop","count_end_of_practice_sketchpad","count_end_sketchpad","count_experiment","count_filler_quick_response_sketchpad","count_fixation_sketchpad","count_instruction_2_sketchpad","count_instructions_sketchpad","count_keypress_practice_sketchpad","count_new_1_sketchpad","count_new_2_sketchpad","count_new_3_keyboard_response","count_new_3_sketchpad","count_new_4_sketchpad","count_new_5_sketchpad","count_new_7_sketchpad","count_new_8_sketchpad","count_new_logger","count_practice_2_loop","count_practice_sequence","count_response_sketchpad","count_trial_keyboard_response","count_trial_sequence","count_trigger_scanner_keyboard_response","count_waiting_scanner_sketchpad","datetime","description","disable_garbage_collection","experiment_file","experiment_path","font_bold","font_family","font_italic","font_size","font_underline","foreground","form_clicks","fullscreen","height","image","interval","keyboard_backend","live_row","live_row_block1_loop","live_row_practice_2_loop","logfile","mouse_backend","opensesame_codename","opensesame_version","probe","repeat_cycle","response","response_instruction_2_sketchpad","response_instructions_sketchpad","response_keypress_practice_sketchpad","response_new_1_sketchpad","response_new_3_keyboard_response","response_new_5_sketchpad","response_time","response_time_instruction_2_sketchpad","response_time_instructions_sketchpad","response_time_keypress_practice_sketchpad","response_time_new_1_sketchpad","response_time_new_3_keyboard_response","response_time_new_5_sketchpad","response_time_trial_keyboard_response","response_time_trigger_scanner_keyboard_response","response_trial_keyboard_response","response_trigger_scanner_keyboard_response","round_decimals","sampler_backend","sound_buf_size","sound_channels","sound_freq","sound_sample_size","start","subject_nr","subject_parity","time_ISI_sketchpad","time_Sample_interval_sketchpad","time_baseline_block_sketchpad","time_block1_loop","time_block2_loop","time_block3_loop","time_block4_loop","time_block5_loop","time_end_of_practice_sketchpad","time_end_sketchpad","time_experiment","time_filler_quick_response_sketchpad","time_fixation_sketchpad","time_instruction_2_sketchpad","time_instructions_sketchpad","time_keypress_practice_sketchpad","time_new_1_sketchpad","time_new_2_sketchpad","time_new_3_keyboard_response","time_new_3_sketchpad","time_new_4_sketchpad","time_new_5_sketchpad","time_new_7_sketchpad","time_new_8_sketchpad","time_new_logger","time_practice_2_loop","time_practice_sequence","time_response_sketchpad","time_trial_keyboard_response","time_trial_sequence","time_trigger_scanner_keyboard_response","time_waiting_scanner_sketchpad","title","total_correct","total_response_time","total_responses","uniform_coordinates","width"
"1","NA","1","undefined","undefined","1937.5577916689508","1937.5577916689508","#ADADAD","psycho","psycho","psycho","undefined","undefined","undefined","undefined","undefined","undefined","undefined","undefined","0","0","5","0","0","0","0","0","0","0","0","0","0","0","0","0","0","9","9","9","9","NA","9","9","3","0","9","0","0","0","3","0","Wed Jan 10 16:16:29 2024","The main experiment item","no","fmri_experiment_final.osexp","C:\TASKS\CNC\fCourse2024_Ctrack\cognition","no","mono","no","24","no","black","no","yes","768","Google_1_Nathan Kiger_3_oval.jpg","600","psycho","0","0","9","C:/TASKS/CNC/fCourse2024_Ctrack/cognition/subject-3039.csv","psycho","Lentiform Loewenfeld","3.3.12","Google_1_Nathan Kiger_3_oval.jpg","0","1","1","1","1","1","1","NA","39.08170000067912","21182.913600001484","71543.34409999137","7988.05880000873","4804.01520000305","74.27769999776501","NA","39.08170000067912","17207.563800009666","1","5","2","psycho","1024","2","48000","-16","experiment","3039","odd","160561.92769999325","159951.33440000063","NA","158847.76679999777","NA","NA","NA","NA","132627.91209999705","NA","3127.131699991878","161073.18349998968","158909.10779999103","74691.56929999008","3134.2053999978816","133639.3926999881","95887.44989999395","130368.59829998866","132542.18019999098","131377.75580000016","131788.99979998823","NA","132301.11639999086","132541.9586999924","161422.7574999968","100692.02109999605","130357.17179998755","161383.27130000107","161383.34049998957","158898.10120000038","141639.85909998883","141639.8046999966","Face Interval Estimation","0","23250.69350002741","12","no","680"
"1","NA","0","undefined","undefined","1871.420346155691","1871.420346155691","#ADADAD","psycho","psycho","psycho","undefined","undefined","undefined","undefined","undefined","undefined","undefined","undefined","1","1","5","0","0","0","0","0","0","0","0","1","1","0","0","0","0","9","9","9","9","NA","9","9","4","0","9","1","1","1","3","0","Wed Jan 10 16:16:29 2024","The main experiment item","no","fmri_experiment_final.osexp","C:\TASKS\CNC\fCourse2024_Ctrack\cognition","no","mono","no","24","no","black","no","yes","768","Google_1_Jonathan Marek_13_oval.jpg","1200","psycho","1","1","9","C:/TASKS/CNC/fCourse2024_Ctrack/cognition/subject-3039.csv","psycho","Lentiform Loewenfeld","3.3.12","Google_1_Louis Somerville_13_oval.jpg","0","1","1","1","1","1","1","NA","1077.7709999965737","21182.913600001484","71543.34409999137","7988.05880000873","4804.01520000305","74.27769999776501","NA","1077.7709999965737","17207.563800009666","1","5","2","psycho","1024","2","48000","-16","experiment","3039","odd","163708.5153999942","162497.39569998928","NA","158847.76679999777","NA","NA","NA","NA","132627.91209999705","NA","3127.131699991878","164220.05059999356","161488.3337999927","74691.56929999008","3134.2053999978816","133639.3926999881","95887.44989999395","130368.59829998866","132542.18019999098","131377.75580000016","131788.99979998823","NA","132301.11639999086","132541.9586999924","165607.85779998696","100692.02109999605","130357.17179998755","164529.55959999235","164529.6309999976","161474.8292999866","141639.85909998883","141639.8046999966","Face Interval Estimation","0","24328.464500023983","13","no","680"
"1","NA","1","undefined","undefined","1790.6682785729313","1790.6682785729313","#ADADAD","psycho","psycho","psycho","undefined","undefined","undefined","undefined","undefined","undefined","undefined","undefined","2","2","5","0","0","0","0","0","0","0","0","2","2","0","0","0","0","9","9","9","9","NA","9","9","5","0","9","2","2","2","3","0","Wed Jan 10 16:16:29 2024","The main experiment item","no","fmri_experiment_final.osexp","C:\TASKS\CNC\fCourse2024_Ctrack\cognition","no","mono","no","24","no","black","no","yes","768","Google_1_Gregory Moreira_17_oval.jpg","1200","psycho","2","2","9","C:/TASKS/CNC/fCourse2024_Ctrack/cognition/subject-3039.csv","psycho","Lentiform Loewenfeld","3.3.12","Google_1_Gregory Moreira_17_oval.jpg","0","1","1","1","1","1","1","NA","740.8913999970537","21182.913600001484","71543.34409999137","7988.05880000873","4804.01520000305","74.27769999776501","NA","740.8913999970537","17207.563800009666","1","5","2","psycho","1024","2","48000","-16","experiment","3039","odd","167892.63609999034","166679.7932999907","NA","158847.76679999777","NA","NA","NA","NA","132627.91209999705","NA","3127.131699991878","168403.15800000099","165670.5954999925","74691.56929999008","3134.2053999978816","133639.3926999881","95887.44989999395","130368.59829998866","132542.18019999098","131377.75580000016","131788.99979998823","NA","132301.11639999086","132541.9586999924","169454.80899998802","100692.02109999605","130357.17179998755","168713.50889999303","168713.57349999016","165658.11299999768","141639.85909998883","141639.8046999966","Face Interval Estimation","0","25069.355900021037","14","no","680"
"1","NA","1","undefined","undefined","1694.4416266681703","1694.4416266681703","#ADADAD","psycho","psycho","psycho","undefined","undefined","undefined","undefined","undefined","undefined","undefined","undefined","3","3","5","0","0","0","0","0","0","0","0","3","3","0","0","0","0","9","9","9","9","NA","9","9","6","0","9","3","3","3","3","0","Wed Jan 10 16:16:29 2024","The main experiment item","no","fmri_experiment_final.osexp","C:\TASKS\CNC\fCourse2024_Ctrack\cognition","no","mono","no","24","no","black","no","yes","768","Google_1_Inez Hofer_5_oval.jpg","1000","psycho","3","3","9","C:/TASKS/CNC/fCourse2024_Ctrack/cognition/subject-3039.csv","psycho","Lentiform Loewenfeld","3.3.12","Google_1_Inez Hofer_5_oval.jpg","0","1","1","1","1","1","1","NA","347.268500001519","21182.913600001484","71543.34409999137","7988.05880000873","4804.01520000305","74.27769999776501","NA","347.268500001519","17207.563800009666","1","5","2","psycho","1024","2","48000","-16","experiment","3039","odd","171537.55249999813","170525.03399999114","NA","158847.76679999777","NA","NA","NA","NA","132627.91209999705","NA","3127.131699991878","172048.57600000105","169516.01149998896","74691.56929999008","3134.2053999978816","133639.3926999881","95887.44989999395","130368.59829998866","132542.18019999098","131377.75580000016","131788.99979998823","NA","132301.11639999086","132541.9586999924","172705.74819999456","100692.02109999605","130357.17179998755","172358.08249999536","172358.14939999545","169503.112099992","141639.85909998883","141639.8046999966","Face Interval Estimation","0","25416.624400022556","15","no","680"
"0","NA","0","undefined","undefined","1614.171318751687","1614.171318751687","#ADADAD","psycho","psycho","psycho","undefined","undefined","undefined","undefined","undefined","undefined","undefined","undefined","4","4","5","0","0","0","0","0","0","0","0","4","4","0","0","0","0","9","9","9","9","NA","9","9","7","0","9","4","4","4","3","0","Wed Jan 10 16:16:29 2024","The main experiment item","no","fmri_experiment_final.osexp","C:\TASKS\CNC\fCourse2024_Ctrack\cognition","no","mono","no","24","no","black","no","yes","768","Google_1_Fred Berube_15_oval.jpg","800","psycho","4","4","9","C:/TASKS/CNC/fCourse2024_Ctrack/cognition/subject-3039.csv","psycho","Lentiform Loewenfeld","3.3.12","Google_1_Kristin Skelly_3_oval.jpg","0","1","1","1","1","1","1","NA","410.116700004437","21182.913600001484","71543.34409999137","7988.05880000873","4804.01520000305","74.27769999776501","NA","410.116700004437","17207.563800009666","1","5","2","psycho","1024","2","48000","-16","experiment","3039","odd","174587.42489998986","173775.0529999903","NA","158847.76679999777","NA","NA","NA","NA","132627.91209999705","NA","3127.131699991878","175100.77289999754","172766.21769998746","74691.56929999008","3134.2053999978816","133639.3926999881","95887.44989999395","130368.59829998866","132542.18019999098","131377.75580000016","131788.99979998823","NA","132301.11639999086","132541.9586999924","175820.7182999904","100692.02109999605","130357.17179998755","175410.21159999946","175410.2794999926","172752.7751999878","141639.85909998883","141639.8046999966","Face Interval Estimation","0","25826.741100026993","16","no","680"
"1","NA","0","undefined","undefined","1524.889888237607","1524.889888237607","#ADADAD","psycho","psycho","psycho","undefined","undefined","undefined","undefined","undefined","undefined","undefined","undefined","5","5","5","0","0","0","0","0","0","0","0","5","5","0","0","0","0","9","9","9","9","NA","9","9","8","0","9","5","5","5","3","0","Wed Jan 10 16:16:29 2024","The main experiment item","no","fmri_experiment_final.osexp","C:\TASKS\CNC\fCourse2024_Ctrack\cognition","no","mono","no","24","no","black","no","yes","768","Brian_Friedrich_19_oval.jpg","800","psycho","5","5","9","C:/TASKS/CNC/fCourse2024_Ctrack/cognition/subject-3039.csv","psycho","Lentiform Loewenfeld","3.3.12","Google_1_Frank Luke_9_oval.jpg","0","1","1","1","1","1","1","NA","96.38700001232792","21182.913600001484","71543.34409999137","7988.05880000873","4804.01520000305","74.27769999776501","NA","96.38700001232792","17207.563800009666","1","5","2","psycho","1024","2","48000","-16","experiment","3039","odd","177703.9633999957","176890.16559999436","NA","158847.76679999777","NA","NA","NA","NA","132627.91209999705","NA","3127.131699991878","178212.86289999261","175881.1840999988","74691.56929999008","3134.2053999978816","133639.3926999881","95887.44989999395","130368.59829998866","132542.18019999098","131377.75580000016","131788.99979998823","NA","132301.11639999086","132541.9586999924","178619.73819999548","100692.02109999605","130357.17179998755","178522.93059999647","178523.00599998853","175868.66839999857","141639.85909998883","141639.8046999966","Face Interval Estimation","0","25923.12810003932","17","no","680"
"0","NA","1","undefined","undefined","1470.8006888912578","1470.8006888912578","#ADADAD","psycho","psycho","psycho","undefined","undefined","undefined","undefined","undefined","undefined","undefined","undefined","6","6","5","0","0","0","0","0","0","0","0","6","6","0","0","0","0","9","9","9","9","NA","9","9","9","0","9","6","6","6","3","0","Wed Jan 10 16:16:29 2024","The main experiment item","no","fmri_experiment_final.osexp","C:\TASKS\CNC\fCourse2024_Ctrack\cognition","no","mono","no","24","no","black","no","yes","768","Google_1_Michael Turcotte_13_oval.jpg","600","psycho","6","6","9","C:/TASKS/CNC/fCourse2024_Ctrack/cognition/subject-3039.csv","psycho","Lentiform Loewenfeld","3.3.12","Google_1_Michael Turcotte_13_oval.jpg","0","1","1","1","1","1","1","NA","551.2843000033172","21182.913600001484","71543.34409999137","7988.05880000873","4804.01520000305","74.27769999776501","NA","551.2843000033172","17207.563800009666","1","5","2","psycho","1024","2","48000","-16","experiment","3039","odd","180317.86539999302","179705.25929999712","NA","158847.76679999777","NA","NA","NA","NA","132627.91209999705","NA","3127.131699991878","180827.59599998826","178693.84549999086","74691.56929999008","3134.2053999978816","133639.3926999881","95887.44989999395","130368.59829998866","132542.18019999098","131377.75580000016","131788.99979998823","NA","132301.11639999086","132541.9586999924","181690.8398999949","100692.02109999605","130357.17179998755","181139.04249999905","181139.11299999745","178683.1538999977","141639.85909998883","141639.8046999966","Face Interval Estimation","0","26474.41240004264","18","no","680"
"0","NA","1","undefined","undefined","1431.5646263184087","1431.5646263184087","#ADADAD","psycho","psycho","psycho","undefined","undefined","undefined","undefined","undefined","undefined","undefined","undefined","7","7","5","0","0","0","0","0","0","0","0","7","7","0","0","0","0","9","9","9","9","NA","9","9","10","0","9","7","7","7","3","0","Wed Jan 10 16:16:29 2024","The main experiment item","no","fmri_experiment_final.osexp","C:\TASKS\CNC\fCourse2024_Ctrack\cognition","no","mono","no","24","no","black","no","yes","768","Google_1_Paul Sun_9_oval.jpg","1200","psycho","7","7","9","C:/TASKS/CNC/fCourse2024_Ctrack/cognition/subject-3039.csv","psycho","Lentiform Loewenfeld","3.3.12","Google_1_Paul Sun_9_oval.jpg","0","1","1","1","1","1","1","NA","725.3155000071274","21182.913600001484","71543.34409999137","7988.05880000873","4804.01520000305","74.27769999776501","NA","725.3155000071274","17207.563800009666","1","5","2","psycho","1024","2","48000","-16","experiment","3039","odd","183973.86509999342","182762.64969998738","NA","158847.76679999777","NA","NA","NA","NA","132627.91209999705","NA","3127.131699991878","184484.52230000112","181753.91169999784","74691.56929999008","3134.2053999978816","133639.3926999881","95887.44989999395","130368.59829998866","132542.18019999098","131377.75580000016","131788.99979998823","NA","132301.11639999086","132541.9586999924","185519.77590000024","100692.02109999605","130357.17179998755","184794.00270000042","184794.07429999264","181739.83909998788","141639.85909998883","141639.8046999966","Face Interval Estimation","0","27199.727900049766","19","no","680"
"0","NA","1","undefined","undefined","1395.0052550026157","1395.0052550026157","#ADADAD","psycho","psycho","psycho","undefined","undefined","undefined","undefined","undefined","undefined","undefined","undefined","8","8","5","0","0","0","0","0","0","0","0","8","8","0","0","0","0","9","9","9","9","NA","9","9","11","0","9","8","8","8","3","0","Wed Jan 10 16:16:29 2024","The main experiment item","no","fmri_experiment_final.osexp","C:\TASKS\CNC\fCourse2024_Ctrack\cognition","no","mono","no","24","no","black","no","yes","768","Google_1_Kara Tsang_15_oval.jpg","1200","psycho","8","8","9","C:/TASKS/CNC/fCourse2024_Ctrack/cognition/subject-3039.csv","psycho","Lentiform Loewenfeld","3.3.12","Google_1_Kara Tsang_15_oval.jpg","0","1","1","1","1","1","1","NA","700.3772000025492","21182.913600001484","71543.34409999137","7988.05880000873","4804.01520000305","74.27769999776501","NA","700.3772000025492","17207.563800009666","1","5","2","psycho","1024","2","48000","-16","experiment","3039","odd","187803.65449999226","186593.40129999327","NA","158847.76679999777","NA","NA","NA","NA","132627.91209999705","NA","3127.131699991878","188313.31839998893","185582.33809999365","74691.56929999008","3134.2053999978816","133639.3926999881","95887.44989999395","130368.59829998866","132542.18019999098","131377.75580000016","131788.99979998823","NA","132301.11639999086","132541.9586999924","189325.65729999624","100692.02109999605","130357.17179998755","188624.88649999432","188624.9562999874","185570.0516999932","141639.85909998883","141639.8046999966","Face Interval Estimation","0","27900.105100052315","20","no","680"
"0","NA","0","undefined","undefined","1353.3383714308175","1353.3383714308175","#ADADAD","psycho","psycho","psycho","undefined","undefined","undefined","undefined","undefined","undefined","undefined","undefined","9","9","5","0","0","0","0","0","0","0","0","9","9","0","0","0","0","9","9","9","9","NA","9","9","12","0","9","9","9","9","3","0","Wed Jan 10 16:16:29 2024","The main experiment item","no","fmri_experiment_final.osexp","C:\TASKS\CNC\fCourse2024_Ctrack\cognition","no","mono","no","24","no","black","no","yes","768","Google_1_Larry Perryman_5_oval.jpg","800","psycho","9","9","9","C:/TASKS/CNC/fCourse2024_Ctrack/cognition/subject-3039.csv","psycho","Lentiform Loewenfeld","3.3.12","Allison_Samson_13_oval.jpg","0","1","1","1","1","1","1","NA","520.0006999948528","21182.913600001484","71543.34409999137","7988.05880000873","4804.01520000305","74.27769999776501","NA","520.0006999948528","17207.563800009666","1","5","2","psycho","1024","2","48000","-16","experiment","3039","odd","191207.49519999663","190397.2425999964","NA","158847.76679999777","NA","NA","NA","NA","132627.91209999705","NA","3127.131699991878","191718.17909998936","189386.1237999954","74691.56929999008","3134.2053999978816","133639.3926999881","95887.44989999395","130368.59829998866","132542.18019999098","131377.75580000016","131788.99979998823","NA","132301.11639999086","132541.9586999924","192548.73829999997","100692.02109999605","130357.17179998755","192028.27640000032","192028.35219999542","189373.9615999948","141639.85909998883","141639.8046999966","Face Interval Estimation","0","28420.105800047168","21","no","680"
"0","NA","1","undefined","undefined","1292.8900545481486","1292.8900545481486","#ADADAD","psycho","psycho","psycho","undefined","undefined","undefined","undefined","undefined","undefined","undefined","undefined","10","10","5","0","0","0","0","0","0","0","0","10","10","0","0","0","0","9","9","9","9","NA","9","9","13","0","9","10","10","10","3","0","Wed Jan 10 16:16:29 2024","The main experiment item","no","fmri_experiment_final.osexp","C:\TASKS\CNC\fCourse2024_Ctrack\cognition","no","mono","no","24","no","black","no","yes","768","Google_1_Molly Mccants_15_oval.jpg","600","psycho","10","10","9","C:/TASKS/CNC/fCourse2024_Ctrack/cognition/subject-3039.csv","psycho","Lentiform Loewenfeld","3.3.12","Google_1_Molly Mccants_15_oval.jpg","0","1","1","1","1","1","1","NA","23.47540001210291","21182.913600001484","71543.34409999137","7988.05880000873","4804.01520000305","74.27769999776501","NA","23.47540001210291","17207.563800009666","1","5","2","psycho","1024","2","48000","-16","experiment","3039","odd","194230.85680000077","193618.73750000086","NA","158847.76679999777","NA","NA","NA","NA","132627.91209999705","NA","3127.131699991878","194739.61159998726","192607.75309999008","74691.56929999008","3134.2053999978816","133639.3926999881","95887.44989999395","130368.59829998866","132542.18019999098","131377.75580000016","131788.99979998823","NA","132301.11639999086","132541.9586999924","195075.7508999959","100692.02109999605","130357.17179998755","195051.79139999382","195051.8899999879","192596.88089998963","141639.85909998883","141639.8046999966","Face Interval Estimation","0","28443.58120005927","22","no","680"
"0","NA","1","undefined","undefined","1254.479121741378","1254.479121741378","#ADADAD","psycho","psycho","psycho","undefined","undefined","undefined","undefined","undefined","undefined","undefined","undefined","11","11","5","0","0","0","0","0","0","0","0","11","11","0","0","0","0","9","9","9","9","NA","9","9","14","0","9","11","11","11","3","0","Wed Jan 10 16:16:29 2024","The main experiment item","no","fmri_experiment_final.osexp","C:\TASKS\CNC\fCourse2024_Ctrack\cognition","no","mono","no","24","no","black","no","yes","768","Google_1_Keith Priester_5_oval.jpg","800","psycho","11","11","9","C:/TASKS/CNC/fCourse2024_Ctrack/cognition/subject-3039.csv","psycho","Lentiform Loewenfeld","3.3.12","Google_1_Keith Priester_5_oval.jpg","0","1","1","1","1","1","1","NA","409.43859999242704","21182.913600001484","71543.34409999137","7988.05880000873","4804.01520000305","74.27769999776501","NA","409.43859999242704","17207.563800009666","1","5","2","psycho","1024","2","48000","-16","experiment","3039","odd","196960.0946999999","196147.7648","NA","158847.76679999777","NA","NA","NA","NA","132627.91209999705","NA","3127.131699991878","197470.64289999253","195137.26569998835","74691.56929999008","3134.2053999978816","133639.3926999881","95887.44989999395","130368.59829998866","132542.18019999098","131377.75580000016","131788.99979998823","NA","132301.11639999086","132541.9586999924","198191.74819999898","100692.02109999605","130357.17179998755","197781.85249998933","197781.93219999957","195125.47719999566","141639.85909998883","141639.8046999966","Face Interval Estimation","0","28853.019800051698","23","no","680"
"1","NA","1","undefined","undefined","1214.1322083352861","1214.1322083352861","#ADADAD","psycho","psycho","psycho","undefined","undefined","undefined","undefined","undefined","undefined","undefined","undefined","12","12","5","0","0","0","0","0","0","0","0","12","12","0","0","0","0","9","9","9","9","NA","9","9","15","0","9","12","12","12","3","0","Wed Jan 10 16:16:29 2024","The main experiment item","no","fmri_experiment_final.osexp","C:\TASKS\CNC\fCourse2024_Ctrack\cognition","no","mono","no","24","no","black","no","yes","768","Google_1_Pamela Bermudez_3_oval.jpg","600","psycho","12","12","9","C:/TASKS/CNC/fCourse2024_Ctrack/cognition/subject-3039.csv","psycho","Lentiform Loewenfeld","3.3.12","Google_1_Pamela Bermudez_3_oval.jpg","0","1","1","1","1","1","1","NA","286.1531999951694","21182.913600001484","71543.34409999137","7988.05880000873","4804.01520000305","74.27769999776501","NA","286.1531999951694","17207.563800009666","1","5","2","psycho","1024","2","48000","-16","experiment","3039","odd","199873.4270999994","199262.6314999943","NA","158847.76679999777","NA","NA","NA","NA","132627.91209999705","NA","3127.131699991878","200385.45789998898","198253.89829999767","74691.56929999008","3134.2053999978816","133639.3926999881","95887.44989999395","130368.59829998866","132542.18019999098","131377.75580000016","131788.99979998823","NA","132301.11639999086","132541.9586999924","200981.73669999233","100692.02109999605","130357.17179998755","200695.14949999575","200695.22419999703","198240.1608999935","141639.85909998883","141639.8046999966","Face Interval Estimation","0","29139.173000046867","24","no","680"
"0","NA","0","undefined","undefined","1193.2010320021072","1193.2010320021072","#ADADAD","psycho","psycho","psycho","undefined","undefined","undefined","undefined","undefined","undefined","undefined","undefined","13","13","5","0","0","0","0","0","0","0","0","13","13","0","0","0","0","9","9","9","9","NA","9","9","16","0","9","13","13","13","3","0","Wed Jan 10 16:16:29 2024","The main experiment item","no","fmri_experiment_final.osexp","C:\TASKS\CNC\fCourse2024_Ctrack\cognition","no","mono","no","24","no","black","no","yes","768","Google_1_Stephen Masterson_7_oval.jpg","1200","psycho","13","13","9","C:/TASKS/CNC/fCourse2024_Ctrack/cognition/subject-3039.csv","psycho","Lentiform Loewenfeld","3.3.12","Google_1_Robert Ross_11_oval.jpg","0","1","1","1","1","1","1","NA","690.8528000058141","21182.913600001484","71543.34409999137","7988.05880000873","4804.01520000305","74.27769999776501","NA","690.8528000058141","17207.563800009666","1","5","2","psycho","1024","2","48000","-16","experiment","3039","odd","203264.5996999927","202053.89349999314","NA","158847.76679999777","NA","NA","NA","NA","132627.91209999705","NA","3127.131699991878","203774.21369998774","201042.4467999983","74691.56929999008","3134.2053999978816","133639.3926999881","95887.44989999395","130368.59829998866","132542.18019999098","131377.75580000016","131788.99979998823","NA","132301.11639999086","132541.9586999924","204776.74789998855","100692.02109999605","130357.17179998755","204085.43039999495","204085.505799987","201031.35589999147","141639.85909998883","141639.8046999966","Face Interval Estimation","0","29830.02580005268","25","no","680"
"1","NA","1","undefined","undefined","1173.893184617135","1173.893184617135","#ADADAD","psycho","psycho","psycho","undefined","undefined","undefined","undefined","undefined","undefined","undefined","undefined","14","14","5","0","0","0","0","0","0","0","0","14","14","0","0","0","0","9","9","9","9","NA","9","9","17","0","9","14","14","14","3","0","Wed Jan 10 16:16:29 2024","The main experiment item","no","fmri_experiment_final.osexp","C:\TASKS\CNC\fCourse2024_Ctrack\cognition","no","mono","no","24","no","black","no","yes","768","Google_1_Ernest Swisher_9_oval.jpg","1000","psycho","14","14","9","C:/TASKS/CNC/fCourse2024_Ctrack/cognition/subject-3039.csv","psycho","Lentiform Loewenfeld","3.3.12","Google_1_Ernest Swisher_9_oval.jpg","0","1","1","1","1","1","1","NA","691.196999992826","21182.913600001484","71543.34409999137","7988.05880000873","4804.01520000305","74.27769999776501","NA","691.196999992826","17207.563800009666","1","5","2","psycho","1024","2","48000","-16","experiment","3039","odd","206858.39119998855","205847.80540000065","NA","158847.76679999777","NA","NA","NA","NA","132627.91209999705","NA","3127.131699991878","207368.4482999961","204838.16379999917","74691.56929999008","3134.2053999978816","133639.3926999881","95887.44989999395","130368.59829998866","132542.18019999098","131377.75580000016","131788.99979998823","NA","132301.11639999086","132541.9586999924","208370.7410999923","100692.02109999605","130357.17179998755","207679.09969999164","207679.16569999943","204825.1894999994","141639.85909998883","141639.8046999966","Face Interval Estimation","0","30521.222800045507","26","no","680"
"1","NA","1","undefined","undefined","1154.1884740759592","1154.1884740759592","#ADADAD","psycho","psycho","psycho","undefined","undefined","undefined","undefined","undefined","undefined","undefined","undefined","15","15","5","0","0","0","0","0","0","0","0","15","15","0","0","0","0","9","9","9","9","NA","9","9","18","0","9","15","15","15","3","0","Wed Jan 10 16:16:29 2024","The main experiment item","no","fmri_experiment_final.osexp","C:\TASKS\CNC\fCourse2024_Ctrack\cognition","no","mono","no","24","no","black","no","yes","768","Google_1_Carlos Diep_19_oval.jpg","1200","psycho","15","15","9","C:/TASKS/CNC/fCourse2024_Ctrack/cognition/subject-3039.csv","psycho","Lentiform Loewenfeld","3.3.12","Google_1_Carlos Diep_19_oval.jpg","0","1","1","1","1","1","1","NA","641.8660000053933","21182.913600001484","71543.34409999137","7988.05880000873","4804.01520000305","74.27769999776501","NA","641.8660000053933","17207.563800009666","1","5","2","psycho","1024","2","48000","-16","experiment","3039","odd","210653.25399998983","209443.0599999905","NA","158847.76679999777","NA","NA","NA","NA","132627.91209999705","NA","3127.131699991878","211164.38289999496","208431.9503000006","74691.56929999008","3134.2053999978816","133639.3926999881","95887.44989999395","130368.59829998866","132542.18019999098","131377.75580000016","131788.99979998823","NA","132301.11639999086","132541.9586999924","212115.7308999973","100692.02109999605","130357.17179998755","211473.4030999971","211473.4802999883","208419.5061999926","141639.85909998883","141639.8046999966","Face Interval Estimation","0","31163.0888000509","27","no","680"
"0","NA","1","undefined","undefined","1120.5071142877775","1120.5071142877775","#ADADAD","psycho","psycho","psycho","undefined","undefined","undefined","undefined","undefined","undefined","undefined","undefined","16","16","5","0","0","0","0","0","0","0","0","16","16","0","0","0","0","9","9","9","9","NA","9","9","19","0","9","16","16","16","3","0","Wed Jan 10 16:16:29 2024","The main experiment item","no","fmri_experiment_final.osexp","C:\TASKS\CNC\fCourse2024_Ctrack\cognition","no","mono","no","24","no","black","no","yes","768","Google_1_Erica Vue_9_oval.jpg","600","psycho","16","16","9","C:/TASKS/CNC/fCourse2024_Ctrack/cognition/subject-3039.csv","psycho","Lentiform Loewenfeld","3.3.12","Google_1_Erica Vue_9_oval.jpg","0","1","1","1","1","1","1","NA","211.11040000687353","21182.913600001484","71543.34409999137","7988.05880000873","4804.01520000305","74.27769999776501","NA","211.11040000687353","17207.563800009666","1","5","2","psycho","1024","2","48000","-16","experiment","3039","odd","213798.15139999846","213185.55840000045","NA","158847.76679999777","NA","NA","NA","NA","132627.91209999705","NA","3127.131699991878","214306.70190000092","212176.02539999643","74691.56929999008","3134.2053999978816","133639.3926999881","95887.44989999395","130368.59829998866","132542.18019999098","131377.75580000016","131788.99979998823","NA","132301.11639999086","132541.9586999924","214829.7886999935","100692.02109999605","130357.17179998755","214618.16790000012","214618.2504999888","212163.98259998823","141639.85909998883","141639.8046999966","Face Interval Estimation","0","31374.199200057774","28","no","680"
"0","NA","1","undefined","undefined","1103.4128482775675","1103.4128482775675","#ADADAD","psycho","psycho","psycho","undefined","undefined","undefined","undefined","undefined","undefined","undefined","undefined","17","17","5","0","0","0","0","0","0","0","0","17","17","0","0","0","0","9","9","9","9","NA","9","9","20","0","9","17","17","17","3","0","Wed Jan 10 16:16:29 2024","The main experiment item","no","fmri_experiment_final.osexp","C:\TASKS\CNC\fCourse2024_Ctrack\cognition","no","mono","no","24","no","black","no","yes","768","Google_1_Victor Ellinger_16_oval.jpg","1200","psycho","17","17","9","C:/TASKS/CNC/fCourse2024_Ctrack/cognition/subject-3039.csv","psycho","Lentiform Loewenfeld","3.3.12","Google_1_Victor Ellinger_16_oval.jpg","0","1","1","1","1","1","1","NA","624.7733999916818","21182.913600001484","71543.34409999137","7988.05880000873","4804.01520000305","74.27769999776501","NA","624.7733999916818","17207.563800009666","1","5","2","psycho","1024","2","48000","-16","experiment","3039","odd","217113.66319999797","215901.11159998924","NA","158847.76679999777","NA","NA","NA","NA","132627.91209999705","NA","3127.131699991878","217622.55169999844","214889.11189998908","74691.56929999008","3134.2053999978816","133639.3926999881","95887.44989999395","130368.59829998866","132542.18019999098","131377.75580000016","131788.99979998823","NA","132301.11639999086","132541.9586999924","218559.84639999224","100692.02109999605","130357.17179998755","217934.50659999507","217934.5791999949","214878.163699992","141639.85909998883","141639.8046999966","Face Interval Estimation","0","31998.972600049456","29","no","680"
"1","NA","0","undefined","undefined","1095.9748300015538","1095.9748300015538","#ADADAD","psycho","psycho","psycho","undefined","undefined","undefined","undefined","undefined","undefined","undefined","undefined","18","18","5","0","0","0","0","0","0","0","0","18","18","0","0","0","0","9","9","9","9","NA","9","9","21","0","9","18","18","18","3","0","Wed Jan 10 16:16:29 2024","The main experiment item","no","fmri_experiment_final.osexp","C:\TASKS\CNC\fCourse2024_Ctrack\cognition","no","mono","no","24","no","black","no","yes","768","Google_1_Patsy Steadman_3_oval.jpg","1000","psycho","18","18","9","C:/TASKS/CNC/fCourse2024_Ctrack/cognition/subject-3039.csv","psycho","Lentiform Loewenfeld","3.3.12","Google_1_Carolyn Kiley_7_oval.jpg","0","1","1","1","1","1","1","NA","880.2722999971593","21182.913600001484","71543.34409999137","7988.05880000873","4804.01520000305","74.27769999776501","NA","880.2722999971593","17207.563800009666","1","5","2","psycho","1024","2","48000","-16","experiment","3039","odd","220644.3447999918","219633.75229999656","NA","158847.76679999777","NA","NA","NA","NA","132627.91209999705","NA","3127.131699991878","221154.21969999443","218621.90879999253","74691.56929999008","3134.2053999978816","133639.3926999881","95887.44989999395","130368.59829998866","132542.18019999098","131377.75580000016","131788.99979998823","NA","132301.11639999086","132541.9586999924","222345.79139998823","100692.02109999605","130357.17179998755","221465.00359999482","221465.071300001","218610.49509998702","141639.85909998883","141639.8046999966","Face Interval Estimation","0","32879.244900046615","30","no","680"
"1","NA","0","undefined","undefined","1086.4809741948604","1086.4809741948604","#ADADAD","psycho","psycho","psycho","undefined","undefined","undefined","undefined","undefined","undefined","undefined","undefined","19","19","5","0","0","0","0","0","0","0","0","19","19","0","0","0","0","9","9","9","9","NA","9","9","22","0","9","19","19","19","3","0","Wed Jan 10 16:16:29 2024","The main experiment item","no","fmri_experiment_final.osexp","C:\TASKS\CNC\fCourse2024_Ctrack\cognition","no","mono","no","24","no","black","no","yes","768","Google_1_Russell Baeza_13_oval.jpg","1200","psycho","19","19","9","C:/TASKS/CNC/fCourse2024_Ctrack/cognition/subject-3039.csv","psycho","Lentiform Loewenfeld","3.3.12","Google_1_Marjorie Petty_11_oval.jpg","0","1","1","1","1","1","1","NA","801.6652999940561","21182.913600001484","71543.34409999137","7988.05880000873","4804.01520000305","74.27769999776501","NA","801.6652999940561","17207.563800009666","1","5","2","psycho","1024","2","48000","-16","experiment","3039","odd","224627.97709999722","223418.1346999976","NA","158847.76679999777","NA","NA","NA","NA","132627.91209999705","NA","3127.131699991878","225138.5980999912","222406.5353999904","74691.56929999008","3134.2053999978816","133639.3926999881","95887.44989999395","130368.59829998866","132542.18019999098","131377.75580000016","131788.99979998823","NA","132301.11639999086","132541.9586999924","226250.73749999865","100692.02109999605","130357.17179998755","225448.60459999472","225448.6700999987","222394.18009998917","141639.85909998883","141639.8046999966","Face Interval Estimation","0","33680.91020004067","31","no","680"
"1","NA","0","undefined","undefined","1074.7598718762674","1074.7598718762674","#ADADAD","psycho","psycho","psycho","undefined","undefined","undefined","undefined","undefined","undefined","undefined","undefined","20","20","5","0","0","0","0","0","0","0","0","20","20","0","0","0","0","9","9","9","9","NA","9","9","23","0","9","20","20","20","3","0","Wed Jan 10 16:16:29 2024","The main experiment item","no","fmri_experiment_final.osexp","C:\TASKS\CNC\fCourse2024_Ctrack\cognition","no","mono","no","24","no","black","no","yes","768","Google_1_Glenn Leyba_19_oval.jpg","1000","psycho","20","20","9","C:/TASKS/CNC/fCourse2024_Ctrack/cognition/subject-3039.csv","psycho","Lentiform Loewenfeld","3.3.12","Google_1_Gregory Heflin_9_oval.jpg","0","1","1","1","1","1","1","NA","711.4056999998866","21182.913600001484","71543.34409999137","7988.05880000873","4804.01520000305","74.27769999776501","NA","711.4056999998866","17207.563800009666","1","5","2","psycho","1024","2","48000","-16","experiment","3039","odd","228350.15639998892","227338.64409998932","NA","158847.76679999777","NA","NA","NA","NA","132627.91209999705","NA","3127.131699991878","228860.95649999334","226328.22789999773","74691.56929999008","3134.2053999978816","133639.3926999881","95887.44989999395","130368.59829998866","132542.18019999098","131377.75580000016","131788.99979998823","NA","132301.11639999086","132541.9586999924","229881.81359998998","100692.02109999605","130357.17179998755","229169.8608000006","229169.92969998682","226316.38530000055","141639.85909998883","141639.8046999966","Face Interval Estimation","0","34392.31590004056","32","no","680"
"0","NA","0","undefined","undefined","1062.3653000008992","1062.3653000008992","#ADADAD","psycho","psycho","psycho","undefined","undefined","undefined","undefined","undefined","undefined","undefined","undefined","21","21","5","0","0","0","0","0","0","0","0","21","21","0","0","0","0","9","9","9","9","NA","9","9","24","0","9","21","21","21","3","0","Wed Jan 10 16:16:29 2024","The main experiment item","no","fmri_experiment_final.osexp","C:\TASKS\CNC\fCourse2024_Ctrack\cognition","no","mono","no","24","no","black","no","yes","768","Google_1_Vicky Weis_15_oval.jpg","1000","psycho","21","21","9","C:/TASKS/CNC/fCourse2024_Ctrack/cognition/subject-3039.csv","psycho","Lentiform Loewenfeld","3.3.12","Google_1_Jonathan Bozarth_17_oval.jpg","0","1","1","1","1","1","1","NA","665.7389999891166","21182.913600001484","71543.34409999137","7988.05880000873","4804.01520000305","74.27769999776501","NA","665.7389999891166","17207.563800009666","1","5","2","psycho","1024","2","48000","-16","experiment","3039","odd","231964.02419998776","230951.4414999867","NA","158847.76679999777","NA","NA","NA","NA","132627.91209999705","NA","3127.131699991878","232472.8679999971","229942.10149999708","74691.56929999008","3134.2053999978816","133639.3926999881","95887.44989999395","130368.59829998866","132542.18019999098","131377.75580000016","131788.99979998823","NA","132301.11639999086","132541.9586999924","233449.78619999893","100692.02109999605","130357.17179998755","232783.5242000001","232783.59269999783","229929.75149999256","141639.85909998883","141639.8046999966","Face Interval Estimation","0","35058.054900029674","33","no","680"
"1","NA","0","undefined","undefined","1051.4626794123187","1051.4626794123187","#ADADAD","psycho","psycho","psycho","undefined","undefined","undefined","undefined","undefined","undefined","undefined","undefined","22","22","5","0","0","0","0","0","0","0","0","22","22","0","0","0","0","9","9","9","9","NA","9","9","25","0","9","22","22","22","3","0","Wed Jan 10 16:16:29 2024","The main experiment item","no","fmri_experiment_final.osexp","C:\TASKS\CNC\fCourse2024_Ctrack\cognition","no","mono","no","24","no","black","no","yes","768","Google_1_Justin Woodard_15_oval.jpg","1200","psycho","22","22","9","C:/TASKS/CNC/fCourse2024_Ctrack/cognition/subject-3039.csv","psycho","Lentiform Loewenfeld","3.3.12","Google_1_Laura Hines_7_oval.jpg","0","1","1","1","1","1","1","NA","691.6761999891605","21182.913600001484","71543.34409999137","7988.05880000873","4804.01520000305","74.27769999776501","NA","691.6761999891605","17207.563800009666","1","5","2","psycho","1024","2","48000","-16","experiment","3039","odd","235732.58649998752","234520.20699999412","NA","158847.76679999777","NA","NA","NA","NA","132627.91209999705","NA","3127.131699991878","236241.46469999687","233510.9090999904","74691.56929999008","3134.2053999978816","133639.3926999881","95887.44989999395","130368.59829998866","132542.18019999098","131377.75580000016","131788.99979998823","NA","132301.11639999086","132541.9586999924","237243.72709999443","100692.02109999605","130357.17179998755","236551.5635999909","236551.63529999845","233498.62049998774","141639.85909998883","141639.8046999966","Face Interval Estimation","0","35749.731100018835","34","no","680"
"1","NA","1","undefined","undefined","1042.604222857543","1042.604222857543","#ADADAD","psycho","psycho","psycho","undefined","undefined","undefined","undefined","undefined","undefined","undefined","undefined","23","23","5","0","0","0","0","0","0","0","0","23","23","0","0","0","0","9","9","9","9","NA","9","9","26","0","9","23","23","23","3","0","Wed Jan 10 16:16:29 2024","The main experiment item","no","fmri_experiment_final.osexp","C:\TASKS\CNC\fCourse2024_Ctrack\cognition","no","mono","no","24","no","black","no","yes","768","Google_1_Kristin Catalan_7_oval.jpg","1200","psycho","23","23","9","C:/TASKS/CNC/fCourse2024_Ctrack/cognition/subject-3039.csv","psycho","Lentiform Loewenfeld","3.3.12","Google_1_Kristin Catalan_7_oval.jpg","0","1","1","1","1","1","1","NA","741.4166999951703","21182.913600001484","71543.34409999137","7988.05880000873","4804.01520000305","74.27769999776501","NA","741.4166999951703","17207.563800009666","1","5","2","psycho","1024","2","48000","-16","experiment","3039","odd","239530.28199999244","238317.4246999988","NA","158847.76679999777","NA","NA","NA","NA","132627.91209999705","NA","3127.131699991878","240039.98409998894","237305.57489999046","74691.56929999008","3134.2053999978816","133639.3926999881","95887.44989999395","130368.59829998866","132542.18019999098","131377.75580000016","131788.99979998823","NA","132301.11639999086","132541.9586999924","241093.77179999137","100692.02109999605","130357.17179998755","240351.81949999242","240351.89099999843","237294.67379998823","141639.85909998883","141639.8046999966","Face Interval Estimation","0","36491.147800014005","35","no","680"
"0","NA","0","undefined","undefined","1034.8826555560258","1034.8826555560258","#ADADAD","psycho","psycho","psycho","undefined","undefined","undefined","undefined","undefined","undefined","undefined","undefined","24","24","5","0","0","0","0","0","0","0","0","24","24","0","0","0","0","9","9","9","9","NA","9","9","27","0","9","24","24","24","3","0","Wed Jan 10 16:16:29 2024","The main experiment item","no","fmri_experiment_final.osexp","C:\TASKS\CNC\fCourse2024_Ctrack\cognition","no","mono","no","24","no","black","no","yes","768","Google_1_Barbara Oakes_13_oval.jpg","1200","psycho","24","24","9","C:/TASKS/CNC/fCourse2024_Ctrack/cognition/subject-3039.csv","psycho","Lentiform Loewenfeld","3.3.12","Albert_Waring_1_oval.jpg","0","1","1","1","1","1","1","NA","764.627800002927","21182.913600001484","71543.34409999137","7988.05880000873","4804.01520000305","74.27769999776501","NA","764.627800002927","17207.563800009666","1","5","2","psycho","1024","2","48000","-16","experiment","3039","odd","243379.85519999347","242168.3720000001","NA","158847.76679999777","NA","NA","NA","NA","132627.91209999705","NA","3127.131699991878","243889.3723999936","241155.66259999468","74691.56929999008","3134.2053999978816","133639.3926999881","95887.44989999395","130368.59829998866","132542.18019999098","131377.75580000016","131788.99979998823","NA","132301.11639999086","132541.9586999924","244965.67619999405","100692.02109999605","130357.17179998755","244200.5613999936","244200.63419999497","241144.23449999595","141639.85909998883","141639.8046999966","Face Interval Estimation","0","37255.77560001693","36","no","680"
"1","NA","0","undefined","undefined","1025.4985864869652","1025.4985864869652","#ADADAD","psycho","psycho","psycho","undefined","undefined","undefined","undefined","undefined","undefined","undefined","undefined","25","25","5","0","0","0","0","0","0","0","0","25","25","0","0","0","0","9","9","9","9","NA","9","9","28","0","9","25","25","25","3","0","Wed Jan 10 16:16:29 2024","The main experiment item","no","fmri_experiment_final.osexp","C:\TASKS\CNC\fCourse2024_Ctrack\cognition","no","mono","no","24","no","black","no","yes","768","Google_1_Lorraine Byrd_9_oval.jpg","1200","psycho","25","25","9","C:/TASKS/CNC/fCourse2024_Ctrack/cognition/subject-3039.csv","psycho","Lentiform Loewenfeld","3.3.12","Google_1_Irene Dow_11_oval.jpg","0","1","1","1","1","1","1","NA","687.6721000007819","21182.913600001484","71543.34409999137","7988.05880000873","4804.01520000305","74.27769999776501","NA","687.6721000007819","17207.563800009666","1","5","2","psycho","1024","2","48000","-16","experiment","3039","odd","247267.431699991","246055.70009999792","NA","158847.76679999777","NA","NA","NA","NA","132627.91209999705","NA","3127.131699991878","247777.79969999392","245044.5636999939","74691.56929999008","3134.2053999978816","133639.3926999881","95887.44989999395","130368.59829998866","132542.18019999098","131377.75580000016","131788.99979998823","NA","132301.11639999086","132541.9586999924","248776.8972999911","100692.02109999605","130357.17179998755","248088.5152999981","248088.58709999186","245032.80579998682","141639.85909998883","141639.8046999966","Face Interval Estimation","0","37943.447700017714","37","no","680"
"1","NA","1","undefined","undefined","1016.0743578955206","1016.0743578955206","#ADADAD","psycho","psycho","psycho","undefined","undefined","undefined","undefined","undefined","undefined","undefined","undefined","26","26","5","0","0","0","0","0","0","0","0","26","26","0","0","0","0","9","9","9","9","NA","9","9","29","0","9","26","26","26","3","0","Wed Jan 10 16:16:29 2024","The main experiment item","no","fmri_experiment_final.osexp","C:\TASKS\CNC\fCourse2024_Ctrack\cognition","no","mono","no","24","no","black","no","yes","768","Google_1_Sheryl Oneil_18_oval.jpg","800","psycho","26","26","9","C:/TASKS/CNC/fCourse2024_Ctrack/cognition/subject-3039.csv","psycho","Lentiform Loewenfeld","3.3.12","Google_1_Sheryl Oneil_18_oval.jpg","0","1","1","1","1","1","1","NA","667.3779000120703","21182.913600001484","71543.34409999137","7988.05880000873","4804.01520000305","74.27769999776501","NA","667.3779000120703","17207.563800009666","1","5","2","psycho","1024","2","48000","-16","experiment","3039","odd","250663.4911000001","249851.48800000024","NA","158847.76679999777","NA","NA","NA","NA","132627.91209999705","NA","3127.131699991878","251175.19169999287","248842.5212000002","74691.56929999008","3134.2053999978816","133639.3926999881","95887.44989999395","130368.59829998866","132542.18019999098","131377.75580000016","131788.99979998823","NA","132301.11639999086","132541.9586999924","252152.94079999148","100692.02109999605","130357.17179998755","251484.92689999694","251484.99269998865","248829.13089999056","141639.85909998883","141639.8046999966","Face Interval Estimation","0","38610.825600029784","38","no","680"
"0","NA","0","undefined","undefined","1001.6248153853946","1001.6248153853946","#ADADAD","psycho","psycho","psycho","undefined","undefined","undefined","undefined","undefined","undefined","undefined","undefined","27","27","5","0","0","0","0","0","0","0","0","27","27","0","0","0","0","9","9","9","9","NA","9","9","30","0","9","27","27","27","3","0","Wed Jan 10 16:16:29 2024","The main experiment item","no","fmri_experiment_final.osexp","C:\TASKS\CNC\fCourse2024_Ctrack\cognition","no","mono","no","24","no","black","no","yes","768","Google_1_Alice Pryor_9_oval.jpg","1000","psycho","27","27","9","C:/TASKS/CNC/fCourse2024_Ctrack/cognition/subject-3039.csv","psycho","Lentiform Loewenfeld","3.3.12","Google_1_Ann Silvey_3_oval.jpg","0","1","1","1","1","1","1","NA","452.5422000006074","21182.913600001484","71543.34409999137","7988.05880000873","4804.01520000305","74.27769999776501","NA","452.5422000006074","17207.563800009666","1","5","2","psycho","1024","2","48000","-16","experiment","3039","odd","254235.11729999154","253224.1623000009","NA","158847.76679999777","NA","NA","NA","NA","132627.91209999705","NA","3127.131699991878","254747.70839999837","252214.8332999932","74691.56929999008","3134.2053999978816","133639.3926999881","95887.44989999395","130368.59829998866","132542.18019999098","131377.75580000016","131788.99979998823","NA","132301.11639999086","132541.9586999924","255510.8465999947","100692.02109999605","130357.17179998755","255057.6788999897","255057.75469999935","252202.30929998797","141639.85909998883","141639.8046999966","Face Interval Estimation","0","39063.36780003039","39","no","680"
"0","NA","1","undefined","undefined","989.0046175009047","989.0046175009047","#ADADAD","psycho","psycho","psycho","undefined","undefined","undefined","undefined","undefined","undefined","undefined","undefined","28","28","5","0","0","0","0","0","0","0","0","28","28","0","0","0","0","9","9","9","9","NA","9","9","31","0","9","28","28","28","3","0","Wed Jan 10 16:16:29 2024","The main experiment item","no","fmri_experiment_final.osexp","C:\TASKS\CNC\fCourse2024_Ctrack\cognition","no","mono","no","24","no","black","no","yes","768","Google_1_Howard Matthews_5_oval.jpg","1000","psycho","28","28","9","C:/TASKS/CNC/fCourse2024_Ctrack/cognition/subject-3039.csv","psycho","Lentiform Loewenfeld","3.3.12","Google_1_Howard Matthews_5_oval.jpg","0","1","1","1","1","1","1","NA","496.8169000057969","21182.913600001484","71543.34409999137","7988.05880000873","4804.01520000305","74.27769999776501","NA","496.8169000057969","17207.563800009666","1","5","2","psycho","1024","2","48000","-16","experiment","3039","odd","257595.71749999304","256583.34319999267","NA","158847.76679999777","NA","NA","NA","NA","132627.91209999705","NA","3127.131699991878","258105.39009999775","255571.5796999866","74691.56929999008","3134.2053999978816","133639.3926999881","95887.44989999395","130368.59829998866","132542.18019999098","131377.75580000016","131788.99979998823","NA","132301.11639999086","132541.9586999924","258914.64599999017","100692.02109999605","130357.17179998755","258417.3579999915","258417.4262999877","255560.5985000002","141639.85909998883","141639.8046999966","Face Interval Estimation","0","39560.18470003619","40","no","680"
"0","NA","0","undefined","undefined","977.7815951227506","977.7815951227506","#ADADAD","psycho","psycho","psycho","undefined","undefined","undefined","undefined","undefined","undefined","undefined","undefined","29","29","5","0","0","0","0","0","0","0","0","29","29","0","0","0","0","9","9","9","9","NA","9","9","32","0","9","29","29","29","3","0","Wed Jan 10 16:16:29 2024","The main experiment item","no","fmri_experiment_final.osexp","C:\TASKS\CNC\fCourse2024_Ctrack\cognition","no","mono","no","24","no","black","no","yes","768","Google_1_Mike Holton_15_oval.jpg","1000","psycho","29","29","9","C:/TASKS/CNC/fCourse2024_Ctrack/cognition/subject-3039.csv","psycho","Lentiform Loewenfeld","3.3.12","Google_1_Cindy Mcdougald_11_oval.jpg","0","1","1","1","1","1","1","NA","528.860699996585","21182.913600001484","71543.34409999137","7988.05880000873","4804.01520000305","74.27769999776501","NA","528.860699996585","17207.563800009666","1","5","2","psycho","1024","2","48000","-16","experiment","3039","odd","260997.32389999554","259985.43779998727","NA","158847.76679999777","NA","NA","NA","NA","132627.91209999705","NA","3127.131699991878","261506.39229999797","258975.85329999856","74691.56929999008","3134.2053999978816","133639.3926999881","95887.44989999395","130368.59829998866","132542.18019999098","131377.75580000016","131788.99979998823","NA","132301.11639999086","132541.9586999924","262346.71319999325","100692.02109999605","130357.17179998755","261817.35469998966","261817.42439999653","258964.85329999996","141639.85909998883","141639.8046999966","Face Interval Estimation","0","40089.04540003277","41","no","680"
"0","NA","1","undefined","undefined","967.3498904771155","967.3498904771155","#ADADAD","psycho","psycho","psycho","undefined","undefined","undefined","undefined","undefined","undefined","undefined","undefined","30","30","5","0","0","0","0","0","0","0","0","30","30","0","0","0","0","9","9","9","9","NA","9","9","33","0","9","30","30","30","3","0","Wed Jan 10 16:16:29 2024","The main experiment item","no","fmri_experiment_final.osexp","C:\TASKS\CNC\fCourse2024_Ctrack\cognition","no","mono","no","24","no","black","no","yes","768","Google_1_Stanley Guzman_1_oval.jpg","800","psycho","30","30","9","C:/TASKS/CNC/fCourse2024_Ctrack/cognition/subject-3039.csv","psycho","Lentiform Loewenfeld","3.3.12","Google_1_Stanley Guzman_1_oval.jpg","0","1","1","1","1","1","1","NA","539.6500000060769","21182.913600001484","71543.34409999137","7988.05880000873","4804.01520000305","74.27769999776501","NA","539.6500000060769","17207.563800009666","1","5","2","psycho","1024","2","48000","-16","experiment","3039","odd","264232.6228999882","263419.8388999939","NA","158847.76679999777","NA","NA","NA","NA","132627.91209999705","NA","3127.131699991878","264742.34169999545","262409.21539999545","74691.56929999008","3134.2053999978816","133639.3926999881","95887.44989999395","130368.59829998866","132542.18019999098","131377.75580000016","131788.99979998823","NA","132301.11639999086","132541.9586999924","265592.72649999184","100692.02109999605","130357.17179998755","265052.56679999","265052.635199987","262397.8138999955","141639.85909998883","141639.8046999966","Face Interval Estimation","0","40628.69540003885","42","no","680"
"1","NA","0","undefined","undefined","946.714590698532","946.714590698532","#ADADAD","psycho","psycho","psycho","undefined","undefined","undefined","undefined","undefined","undefined","undefined","undefined","31","31","5","0","0","0","0","0","0","0","0","31","31","0","0","0","0","9","9","9","9","NA","9","9","34","0","9","31","31","31","3","0","Wed Jan 10 16:16:29 2024","The main experiment item","no","fmri_experiment_final.osexp","C:\TASKS\CNC\fCourse2024_Ctrack\cognition","no","mono","no","24","no","black","no","yes","768","Google_1_Harold Gravitt_1_oval.jpg","600","psycho","31","31","9","C:/TASKS/CNC/fCourse2024_Ctrack/cognition/subject-3039.csv","psycho","Lentiform Loewenfeld","3.3.12","Google_1_Viola Sorrell_9_oval.jpg","0","1","1","1","1","1","1","NA","80.03199999802746","21182.913600001484","71543.34409999137","7988.05880000873","4804.01520000305","74.27769999776501","NA","80.03199999802746","17207.563800009666","1","5","2","psycho","1024","2","48000","-16","experiment","3039","odd","267275.54919999966","266665.19689999404","NA","158847.76679999777","NA","NA","NA","NA","132627.91209999705","NA","3127.131699991878","267786.42969999055","265654.3302999926","74691.56929999008","3134.2053999978816","133639.3926999881","95887.44989999395","130368.59829998866","132542.18019999098","131377.75580000016","131788.99979998823","NA","132301.11639999086","132541.9586999924","268176.6970999888","100692.02109999605","130357.17179998755","268096.17449999496","268096.240999992","265641.8081000011","141639.85909998883","141639.8046999966","Face Interval Estimation","0","40708.72740003688","43","no","680"
"1","NA","0","undefined","undefined","4270.84350681914","4270.84350681914","#ADADAD","psycho","psycho","psycho","undefined","undefined","undefined","undefined","undefined","undefined","undefined","undefined","31","31","5","0","0","0","0","0","0","0","0","31","31","0","0","0","0","9","9","9","9","NA","9","9","34","0","9","31","31","31","3","0","Wed Jan 10 16:16:29 2024","The main experiment item","no","fmri_experiment_final.osexp","C:\TASKS\CNC\fCourse2024_Ctrack\cognition","no","mono","no","24","no","black","no","yes","768","Google_1_Harold Gravitt_1_oval.jpg","600","psycho","31","31","9","C:/TASKS/CNC/fCourse2024_Ctrack/cognition/subject-3039.csv","psycho","Lentiform Loewenfeld","3.3.12","Google_1_Viola Sorrell_9_oval.jpg","0","5","1","1","1","1","1","NA","147208.38690000528","21182.913600001484","71543.34409999137","7988.05880000873","4804.01520000305","74.27769999776501","NA","80.03199999802746","147208.38690000528","1","5","2","psycho","1024","2","48000","-16","experiment","3039","odd","267275.54919999966","266665.19689999404","268189.323300001","158847.76679999777","NA","NA","NA","NA","132627.91209999705","NA","3127.131699991878","267786.42969999055","265654.3302999926","74691.56929999008","3134.2053999978816","133639.3926999881","95887.44989999395","130368.59829998866","132542.18019999098","131377.75580000016","131788.99979998823","NA","132301.11639999086","132541.9586999924","288848.6833999923","100692.02109999605","130357.17179998755","268096.17449999496","268096.240999992","265641.8081000011","141639.85909998883","141639.8046999966","Face Interval Estimation","0","187917.11430004216","44","no","680"
"0","NA","1","undefined","undefined","4195.169086667657","4195.169086667657","#ADADAD","psycho","psycho","psycho","undefined","undefined","undefined","undefined","undefined","undefined","undefined","undefined","32","32","5","0","0","0","0","0","0","0","0","32","32","0","0","0","0","9","9","9","9","NA","9","9","35","0","9","32","32","32","3","0","Wed Jan 10 16:16:29 2024","The main experiment item","no","fmri_experiment_final.osexp","C:\TASKS\CNC\fCourse2024_Ctrack\cognition","no","mono","no","24","no","black","no","yes","768","Google_1_Roy Bieber_7_oval.jpg","1200","psycho","0","31","9","C:/TASKS/CNC/fCourse2024_Ctrack/cognition/subject-3039.csv","psycho","Lentiform Loewenfeld","3.3.12","Google_1_Roy Bieber_7_oval.jpg","0","1","1","1","1","1","1","NA","865.4946000024211","21182.913600001484","71543.34409999137","7988.05880000873","4804.01520000305","74.27769999776501","NA","865.4946000024211","147208.38690000528","1","5","2","psycho","1024","2","48000","-16","experiment","3039","odd","291132.291899994","289921.448299996","268189.323300001","158847.76679999777","288851.5383999911","NA","NA","NA","132627.91209999705","NA","3127.131699991878","291643.962999995","288910.85269999166","74691.56929999008","3134.2053999978816","133639.3926999881","95887.44989999395","130368.59829998866","132542.18019999098","131377.75580000016","131788.99979998823","NA","132301.11639999086","132541.9586999924","292818.706799997","100692.02109999605","130357.17179998755","291952.6823999913","291952.7546999889","288898.4829999972","141639.85909998883","141639.8046999966","Face Interval Estimation","0","188782.60890004458","45","no","680"
"1","NA","0","undefined","undefined","4109.868136957432","4109.868136957432","#ADADAD","psycho","psycho","psycho","undefined","undefined","undefined","undefined","undefined","undefined","undefined","undefined","33","33","5","0","0","0","0","0","0","0","0","33","33","0","0","0","0","9","9","9","9","NA","9","9","36","0","9","33","33","33","3","0","Wed Jan 10 16:16:29 2024","The main experiment item","no","fmri_experiment_final.osexp","C:\TASKS\CNC\fCourse2024_Ctrack\cognition","no","mono","no","24","no","black","no","yes","768","Google_1_Jonathan Marek_5_oval.jpg","600","psycho","1","31","9","C:/TASKS/CNC/fCourse2024_Ctrack/cognition/subject-3039.csv","psycho","Lentiform Loewenfeld","3.3.12","Google_1_Barbara Zimmerman_2_oval.jpg","0","1","1","1","1","1","1","NA","271.3253999972949","21182.913600001484","71543.34409999137","7988.05880000873","4804.01520000305","74.27769999776501","NA","271.3253999972949","147208.38690000528","1","5","2","psycho","1024","2","48000","-16","experiment","3039","odd","294499.436699989","293888.39399999415","268189.323300001","158847.76679999777","288851.5383999911","NA","NA","NA","132627.91209999705","NA","3127.131699991878","295011.6463999875","292879.000099987","74691.56929999008","3134.2053999978816","133639.3926999881","95887.44989999395","130368.59829998866","132542.18019999098","131377.75580000016","131788.99979998823","NA","132301.11639999086","132541.9586999924","295592.6802999893","100692.02109999605","130357.17179998755","295320.84439999016","295320.91379999474","292866.0300999909","141639.85909998883","141639.8046999966","Face Interval Estimation","0","189053.93430004187","46","no","680"
"0","NA","0","undefined","undefined","4025.961791490269","4025.961791490269","#ADADAD","psycho","psycho","psycho","undefined","undefined","undefined","undefined","undefined","undefined","undefined","undefined","34","34","5","0","0","0","0","0","0","0","0","34","34","0","0","0","0","9","9","9","9","NA","9","9","37","0","9","34","34","34","3","0","Wed Jan 10 16:16:29 2024","The main experiment item","no","fmri_experiment_final.osexp","C:\TASKS\CNC\fCourse2024_Ctrack\cognition","no","mono","no","24","no","black","no","yes","768","Google_1_Paula Faber_15_oval.jpg","600","psycho","2","31","9","C:/TASKS/CNC/fCourse2024_Ctrack/cognition/subject-3039.csv","psycho","Lentiform Loewenfeld","3.3.12","Google_1_Jeffery Rosenberg_18_oval.jpg","0","1","1","1","1","1","1","NA","166.26990000077058","21182.913600001484","71543.34409999137","7988.05880000873","4804.01520000305","74.27769999776501","NA","166.26990000077058","147208.38690000528","1","5","2","psycho","1024","2","48000","-16","experiment","3039","odd","297277.01809999417","296664.5473999961","268189.323300001","158847.76679999777","288851.5383999911","NA","NA","NA","132627.91209999705","NA","3127.131699991878","297785.8111999958","295652.253799999","74691.56929999008","3134.2053999978816","133639.3926999881","95887.44989999395","130368.59829998866","132542.18019999098","131377.75580000016","131788.99979998823","NA","132301.11639999086","132541.9586999924","298264.7594999871","100692.02109999605","130357.17179998755","298097.9010999872","298097.97529999923","295641.12109999405","141639.85909998883","141639.8046999966","Face Interval Estimation","0","189220.20420004264","47","no","680"
"1","NA","1","undefined","undefined","3959.1759708340155","3959.1759708340155","#ADADAD","psycho","psycho","psycho","undefined","undefined","undefined","undefined","undefined","undefined","undefined","undefined","35","35","5","0","0","0","0","0","0","0","0","35","35","0","0","0","0","9","9","9","9","NA","9","9","38","0","9","35","35","35","3","0","Wed Jan 10 16:16:29 2024","The main experiment item","no","fmri_experiment_final.osexp","C:\TASKS\CNC\fCourse2024_Ctrack\cognition","no","mono","no","24","no","black","no","yes","768","Google_1_Janie Butcher_3_oval.jpg","1200","psycho","3","31","9","C:/TASKS/CNC/fCourse2024_Ctrack/cognition/subject-3039.csv","psycho","Lentiform Loewenfeld","3.3.12","Google_1_Janie Butcher_3_oval.jpg","0","1","1","1","1","1","1","NA","820.242399990093","21182.913600001484","71543.34409999137","7988.05880000873","4804.01520000305","74.27769999776501","NA","820.242399990093","147208.38690000528","1","5","2","psycho","1024","2","48000","-16","experiment","3039","odd","300565.9958999895","299353.3533999871","268189.323300001","158847.76679999777","288851.5383999911","NA","NA","NA","132627.91209999705","NA","3127.131699991878","301121.4386999927","298343.8743000006","74691.56929999008","3134.2053999978816","133639.3926999881","95887.44989999395","130368.59829998866","132542.18019999098","131377.75580000016","131788.99979998823","NA","132301.11639999086","132541.9586999924","302253.7774999946","100692.02109999605","130357.17179998755","301432.925000001","301432.993800001","298330.8701999922","141639.85909998883","141639.8046999966","Face Interval Estimation","0","190040.44660003274","48","no","680"
"0","NA","0","undefined","undefined","3889.0008673476345","3889.0008673476345","#ADADAD","psycho","psycho","psycho","undefined","undefined","undefined","undefined","undefined","undefined","undefined","undefined","36","36","5","0","0","0","0","0","0","0","0","36","36","0","0","0","0","9","9","9","9","NA","9","9","39","0","9","36","36","36","3","0","Wed Jan 10 16:16:29 2024","The main experiment item","no","fmri_experiment_final.osexp","C:\TASKS\CNC\fCourse2024_Ctrack\cognition","no","mono","no","24","no","black","no","yes","768","Alan_Gamerson_7_oval.jpg","600","psycho","4","31","9","C:/TASKS/CNC/fCourse2024_Ctrack/cognition/subject-3039.csv","psycho","Lentiform Loewenfeld","3.3.12","Google_1_David Prosser_18_oval.jpg","0","1","1","1","1","1","1","NA","520.5959000013536","21182.913600001484","71543.34409999137","7988.05880000873","4804.01520000305","74.27769999776501","NA","520.5959000013536","147208.38690000528","1","5","2","psycho","1024","2","48000","-16","experiment","3039","odd","303937.2125999944","303326.8301999924","268189.323300001","158847.76679999777","288851.5383999911","NA","NA","NA","132627.91209999705","NA","3127.131699991878","304449.6235999977","302315.6214999908","74691.56929999008","3134.2053999978816","133639.3926999881","95887.44989999395","130368.59829998866","132542.18019999098","131377.75580000016","131788.99979998823","NA","132301.11639999086","132541.9586999924","305281.77180000057","100692.02109999605","130357.17179998755","304760.55279999855","304760.64999999653","302302.5398999889","141639.85909998883","141639.8046999966","Face Interval Estimation","0","190561.0425000341","49","no","680"
"0","NA","1","undefined","undefined","3815.4706140005146","3815.4706140005146","#ADADAD","psycho","psycho","psycho","undefined","undefined","undefined","undefined","undefined","undefined","undefined","undefined","37","37","5","0","0","0","0","0","0","0","0","37","37","0","0","0","0","9","9","9","9","NA","9","9","40","0","9","37","37","37","3","0","Wed Jan 10 16:16:29 2024","The main experiment item","no","fmri_experiment_final.osexp","C:\TASKS\CNC\fCourse2024_Ctrack\cognition","no","mono","no","24","no","black","no","yes","768","Google_1_Larry Atwater_3_oval.jpg","600","psycho","5","31","9","C:/TASKS/CNC/fCourse2024_Ctrack/cognition/subject-3039.csv","psycho","Lentiform Loewenfeld","3.3.12","Google_1_Larry Atwater_3_oval.jpg","0","1","1","1","1","1","1","NA","212.4881999916397","21182.913600001484","71543.34409999137","7988.05880000873","4804.01520000305","74.27769999776501","NA","212.4881999916397","147208.38690000528","1","5","2","psycho","1024","2","48000","-16","experiment","3039","odd","306982.3122999951","306371.5496999939","268189.323300001","158847.76679999777","288851.5383999911","NA","NA","NA","132627.91209999705","NA","3127.131699991878","307491.05079998844","305361.7904999992","74691.56929999008","3134.2053999978816","133639.3926999881","95887.44989999395","130368.59829998866","132542.18019999098","131377.75580000016","131788.99979998823","NA","132301.11639999086","132541.9586999924","308014.8058999912","100692.02109999605","130357.17179998755","307801.66420000023","307801.7383999977","305349.77499999513","141639.85909998883","141639.8046999966","Face Interval Estimation","0","190773.53070002573","50","no","680"
"1","NA","1","undefined","undefined","3757.1920745101","3757.1920745101","#ADADAD","psycho","psycho","psycho","undefined","undefined","undefined","undefined","undefined","undefined","undefined","undefined","38","38","5","0","0","0","0","0","0","0","0","38","38","0","0","0","0","9","9","9","9","NA","9","9","41","0","9","38","38","38","3","0","Wed Jan 10 16:16:29 2024","The main experiment item","no","fmri_experiment_final.osexp","C:\TASKS\CNC\fCourse2024_Ctrack\cognition","no","mono","no","24","no","black","no","yes","768","Google_1_Steve Moyers_19_oval.jpg","1200","psycho","6","31","9","C:/TASKS/CNC/fCourse2024_Ctrack/cognition/subject-3039.csv","psycho","Lentiform Loewenfeld","3.3.12","Google_1_Steve Moyers_19_oval.jpg","0","1","1","1","1","1","1","NA","843.2650999893667","21182.913600001484","71543.34409999137","7988.05880000873","4804.01520000305","74.27769999776501","NA","843.2650999893667","147208.38690000528","1","5","2","psycho","1024","2","48000","-16","experiment","3039","odd","310298.64459999953","309087.71089999937","268189.323300001","158847.76679999777","288851.5383999911","NA","NA","NA","132627.91209999705","NA","3127.131699991878","310809.4451999932","308076.6533999995","74691.56929999008","3134.2053999978816","133639.3926999881","95887.44989999395","130368.59829998866","132542.18019999098","131377.75580000016","131788.99979998823","NA","132301.11639999086","132541.9586999924","311962.8006999992","100692.02109999605","130357.17179998755","311118.85999998776","311118.93620000046","308064.31069999235","141639.85909998883","141639.8046999966","Face Interval Estimation","0","191616.7958000151","51","no","680"
"1","NA","0","undefined","undefined","3700.841571154272","3700.841571154272","#ADADAD","psycho","psycho","psycho","undefined","undefined","undefined","undefined","undefined","undefined","undefined","undefined","39","39","5","0","0","0","0","0","0","0","0","39","39","0","0","0","0","9","9","9","9","NA","9","9","42","0","9","39","39","39","3","0","Wed Jan 10 16:16:29 2024","The main experiment item","no","fmri_experiment_final.osexp","C:\TASKS\CNC\fCourse2024_Ctrack\cognition","no","mono","no","24","no","black","no","yes","768","Google_1_Margaret Wilkerson_3_oval.jpg","800","psycho","7","31","9","C:/TASKS/CNC/fCourse2024_Ctrack/cognition/subject-3039.csv","psycho","Lentiform Loewenfeld","3.3.12","Google_1_Shawn Walling_3_oval.jpg","0","1","1","1","1","1","1","NA","826.9659000070533","21182.913600001484","71543.34409999137","7988.05880000873","4804.01520000305","74.27769999776501","NA","826.9659000070533","147208.38690000528","1","5","2","psycho","1024","2","48000","-16","experiment","3039","odd","313846.487399991","313034.67699998873","268189.323300001","158847.76679999777","288851.5383999911","NA","NA","NA","132627.91209999705","NA","3127.131699991878","314359.22779999964","312026.1458999885","74691.56929999008","3134.2053999978816","133639.3926999881","95887.44989999395","130368.59829998866","132542.18019999098","131377.75580000016","131788.99979998823","NA","132301.11639999086","132541.9586999924","315496.6589999967","100692.02109999605","130357.17179998755","314669.15940000035","314669.22719999275","312012.4677999993","141639.85909998883","141639.8046999966","Face Interval Estimation","0","192443.76170002215","52","no","680"
"0","NA","1","undefined","undefined","3642.062530189232","3642.062530189232","#ADADAD","psycho","psycho","psycho","undefined","undefined","undefined","undefined","undefined","undefined","undefined","undefined","40","40","5","0","0","0","0","0","0","0","0","40","40","0","0","0","0","9","9","9","9","NA","9","9","43","0","9","40","40","40","3","0","Wed Jan 10 16:16:29 2024","The main experiment item","no","fmri_experiment_final.osexp","C:\TASKS\CNC\fCourse2024_Ctrack\cognition","no","mono","no","24","no","black","no","yes","768","Google_1_Jerry Keane_3_oval.jpg","1000","psycho","8","31","9","C:/TASKS/CNC/fCourse2024_Ctrack/cognition/subject-3039.csv","psycho","Lentiform Loewenfeld","3.3.12","Google_1_Jerry Keane_3_oval.jpg","0","1","1","1","1","1","1","NA","585.5524000071455","21182.913600001484","71543.34409999137","7988.05880000873","4804.01520000305","74.27769999776501","NA","585.5524000071455","147208.38690000528","1","5","2","psycho","1024","2","48000","-16","experiment","3039","odd","317580.95160000084","316569.12779998675","268189.323300001","158847.76679999777","288851.5383999911","NA","NA","NA","132627.91209999705","NA","3127.131699991878","318093.18469998834","315560.48679999367","74691.56929999008","3134.2053999978816","133639.3926999881","95887.44989999395","130368.59829998866","132542.18019999098","131377.75580000016","131788.99979998823","NA","132301.11639999086","132541.9586999924","318988.63199999323","100692.02109999605","130357.17179998755","318402.53870000015","318402.6023999904","315546.9071999978","141639.85909998883","141639.8046999966","Face Interval Estimation","0","193029.3141000293","53","no","680"
"0","NA","0","undefined","undefined","3587.9405981487016","3587.9405981487016","#ADADAD","psycho","psycho","psycho","undefined","undefined","undefined","undefined","undefined","undefined","undefined","undefined","41","41","5","0","0","0","0","0","0","0","0","41","41","0","0","0","0","9","9","9","9","NA","9","9","44","0","9","41","41","41","3","0","Wed Jan 10 16:16:29 2024","The main experiment item","no","fmri_experiment_final.osexp","C:\TASKS\CNC\fCourse2024_Ctrack\cognition","no","mono","no","24","no","black","no","yes","768","Google_1_Sara Claytor_7_oval.jpg","600","psycho","9","31","9","C:/TASKS/CNC/fCourse2024_Ctrack/cognition/subject-3039.csv","psycho","Lentiform Loewenfeld","3.3.12","Google_1_Carolyn Kiley_3_oval.jpg","0","1","1","1","1","1","1","NA","719.4782000005944","21182.913600001484","71543.34409999137","7988.05880000873","4804.01520000305","74.27769999776501","NA","719.4782000005944","147208.38690000528","1","5","2","psycho","1024","2","48000","-16","experiment","3039","odd","320687.96250000014","320077.9542999953","268189.323300001","158847.76679999777","288851.5383999911","NA","NA","NA","132627.91209999705","NA","3127.131699991878","321198.63389999955","319065.8798999939","74691.56929999008","3134.2053999978816","133639.3926999881","95887.44989999395","130368.59829998866","132542.18019999098","131377.75580000016","131788.99979998823","NA","132301.11639999086","132541.9586999924","322229.8391999939","100692.02109999605","130357.17179998755","321509.4687999954","321509.7301999922","319054.14159999054","141639.85909998883","141639.8046999966","Face Interval Estimation","0","193748.7923000299","54","no","680"
"1","NA","1","undefined","undefined","3534.860080000627","3534.860080000627","#ADADAD","psycho","psycho","psycho","undefined","undefined","undefined","undefined","undefined","undefined","undefined","undefined","42","42","5","0","0","0","0","0","0","0","0","42","42","0","0","0","0","9","9","9","9","NA","9","9","45","0","9","42","42","42","3","0","Wed Jan 10 16:16:29 2024","The main experiment item","no","fmri_experiment_final.osexp","C:\TASKS\CNC\fCourse2024_Ctrack\cognition","no","mono","no","24","no","black","no","yes","768","Google_1_Melissa Cushing_19_oval.jpg","1000","psycho","10","31","9","C:/TASKS/CNC/fCourse2024_Ctrack/cognition/subject-3039.csv","psycho","Lentiform Loewenfeld","3.3.12","Google_1_Melissa Cushing_19_oval.jpg","0","1","1","1","1","1","1","NA","668.512100004591","21182.913600001484","71543.34409999137","7988.05880000873","4804.01520000305","74.27769999776501","NA","668.512100004591","147208.38690000528","1","5","2","psycho","1024","2","48000","-16","experiment","3039","odd","324313.78009999753","323300.9134999884","268189.323300001","158847.76679999777","288851.5383999911","NA","NA","NA","132627.91209999705","NA","3127.131699991878","324823.5299999942","322290.69029999664","74691.56929999008","3134.2053999978816","133639.3926999881","95887.44989999395","130368.59829998866","132542.18019999098","131377.75580000016","131788.99979998823","NA","132301.11639999086","132541.9586999924","325803.6853999947","100692.02109999605","130357.17179998755","325134.6230999916","325134.6894999879","322279.1615999886","141639.85909998883","141639.8046999966","Face Interval Estimation","0","194417.30440003448","55","no","680"
"1","NA","0","undefined","undefined","3475.2753089290177","3475.2753089290177","#ADADAD","psycho","psycho","psycho","undefined","undefined","undefined","undefined","undefined","undefined","undefined","undefined","43","43","5","0","0","0","0","0","0","0","0","43","43","0","0","0","0","9","9","9","9","NA","9","9","46","0","9","43","43","43","3","0","Wed Jan 10 16:16:29 2024","The main experiment item","no","fmri_experiment_final.osexp","C:\TASKS\CNC\fCourse2024_Ctrack\cognition","no","mono","no","24","no","black","no","yes","768","Google_1_Joshua Guido_13_oval.jpg","600","psycho","11","31","9","C:/TASKS/CNC/fCourse2024_Ctrack/cognition/subject-3039.csv","psycho","Lentiform Loewenfeld","3.3.12","Google_1_Peter Mcclary_13_oval.jpg","0","1","1","1","1","1","1","NA","198.1128999905195","21182.913600001484","71543.34409999137","7988.05880000873","4804.01520000305","74.27769999776501","NA","198.1128999905195","147208.38690000528","1","5","2","psycho","1024","2","48000","-16","experiment","3039","odd","327487.67979998956","326876.9527999975","268189.323300001","158847.76679999777","288851.5383999911","NA","NA","NA","132627.91209999705","NA","3127.131699991878","327996.7379000009","325866.6843999963","74691.56929999008","3134.2053999978816","133639.3926999881","95887.44989999395","130368.59829998866","132542.18019999098","131377.75580000016","131788.99979998823","NA","132301.11639999086","132541.9586999924","328504.686699991","100692.02109999605","130357.17179998755","328306.01580000075","328306.0826000001","325853.9888999949","141639.85909998883","141639.8046999966","Face Interval Estimation","0","194615.417300025","56","no","680"
"0","NA","1","undefined","undefined","3426.4630175442253","3426.4630175442253","#ADADAD","psycho","psycho","psycho","undefined","undefined","undefined","undefined","undefined","undefined","undefined","undefined","44","44","5","0","0","0","0","0","0","0","0","44","44","0","0","0","0","9","9","9","9","NA","9","9","47","0","9","44","44","44","3","0","Wed Jan 10 16:16:29 2024","The main experiment item","no","fmri_experiment_final.osexp","C:\TASKS\CNC\fCourse2024_Ctrack\cognition","no","mono","no","24","no","black","no","yes","768","Google_1_Anthony Riddell_7_oval.jpg","1200","psycho","12","31","9","C:/TASKS/CNC/fCourse2024_Ctrack/cognition/subject-3039.csv","psycho","Lentiform Loewenfeld","3.3.12","Google_1_Anthony Riddell_7_oval.jpg","0","1","1","1","1","1","1","NA","692.9746999958297","21182.913600001484","71543.34409999137","7988.05880000873","4804.01520000305","74.27769999776501","NA","692.9746999958297","147208.38690000528","1","5","2","psycho","1024","2","48000","-16","experiment","3039","odd","330781.69569998863","329572.37619999796","268189.323300001","158847.76679999777","288851.5383999911","NA","NA","NA","132627.91209999705","NA","3127.131699991878","331292.49749999144","328561.9471999962","74691.56929999008","3134.2053999978816","133639.3926999881","95887.44989999395","130368.59829998866","132542.18019999098","131377.75580000016","131788.99979998823","NA","132301.11639999086","132541.9586999924","332294.708299989","100692.02109999605","130357.17179998755","331601.1574000004","331601.22529999353","328549.73129999416","141639.85909998883","141639.8046999966","Face Interval Estimation","0","195308.39200002083","57","no","680"
"0","NA","1","undefined","undefined","3372.5669362071944","3372.5669362071944","#ADADAD","psycho","psycho","psycho","undefined","undefined","undefined","undefined","undefined","undefined","undefined","undefined","45","45","5","0","0","0","0","0","0","0","0","45","45","0","0","0","0","9","9","9","9","NA","9","9","48","0","9","45","45","45","3","0","Wed Jan 10 16:16:29 2024","The main experiment item","no","fmri_experiment_final.osexp","C:\TASKS\CNC\fCourse2024_Ctrack\cognition","no","mono","no","24","no","black","no","yes","768","Google_1_Victor Potter_13_oval.jpg","800","psycho","13","31","9","C:/TASKS/CNC/fCourse2024_Ctrack/cognition/subject-3039.csv","psycho","Lentiform Loewenfeld","3.3.12","Google_1_Victor Potter_13_oval.jpg","0","1","1","1","1","1","1","NA","300.49029999645427","21182.913600001484","71543.34409999137","7988.05880000873","4804.01520000305","74.27769999776501","NA","300.49029999645427","147208.38690000528","1","5","2","psycho","1024","2","48000","-16","experiment","3039","odd","334179.03159999696","333366.41869999585","268189.323300001","158847.76679999777","288851.5383999911","NA","NA","NA","132627.91209999705","NA","3127.131699991878","334690.82720000006","332357.40539999097","74691.56929999008","3134.2053999978816","133639.3926999881","95887.44989999395","130368.59829998866","132542.18019999098","131377.75580000016","131788.99979998823","NA","132301.11639999086","132541.9586999924","335301.73409999406","100692.02109999605","130357.17179998755","335000.64399999974","335000.71419999585","332343.9655999973","141639.85909998883","141639.8046999966","Face Interval Estimation","0","195608.88230001729","58","no","680"
"1","NA","1","undefined","undefined","3331.3009694918605","3331.3009694918605","#ADADAD","psycho","psycho","psycho","undefined","undefined","undefined","undefined","undefined","undefined","undefined","undefined","46","46","5","0","0","0","0","0","0","0","0","46","46","0","0","0","0","9","9","9","9","NA","9","9","49","0","9","46","46","46","3","0","Wed Jan 10 16:16:29 2024","The main experiment item","no","fmri_experiment_final.osexp","C:\TASKS\CNC\fCourse2024_Ctrack\cognition","no","mono","no","24","no","black","no","yes","768","Google_1_Gwendolyn Vance_152_oval.jpg","1200","psycho","14","31","9","C:/TASKS/CNC/fCourse2024_Ctrack/cognition/subject-3039.csv","psycho","Lentiform Loewenfeld","3.3.12","Google_1_Gwendolyn Vance_152_oval.jpg","0","1","1","1","1","1","1","NA","937.8749000024982","21182.913600001484","71543.34409999137","7988.05880000873","4804.01520000305","74.27769999776501","NA","937.8749000024982","147208.38690000528","1","5","2","psycho","1024","2","48000","-16","experiment","3039","odd","337601.93089999666","336391.3058999897","268189.323300001","158847.76679999777","288851.5383999911","NA","NA","NA","132627.91209999705","NA","3127.131699991878","338113.512099997","335380.25959998777","74691.56929999008","3134.2053999978816","133639.3926999881","95887.44989999395","130368.59829998866","132542.18019999098","131377.75580000016","131788.99979998823","NA","132301.11639999086","132541.9586999924","339363.65909999586","100692.02109999605","130357.17179998755","338425.2184999932","338425.29029998695","335368.4523999982","141639.85909998883","141639.8046999966","Face Interval Estimation","0","196546.75720001978","59","no","680"
"0","NA","1","undefined","undefined","3283.897045000534","3283.897045000534","#ADADAD","psycho","psycho","psycho","undefined","undefined","undefined","undefined","undefined","undefined","undefined","undefined","47","47","5","0","0","0","0","0","0","0","0","47","47","0","0","0","0","9","9","9","9","NA","9","9","50","0","9","47","47","47","3","0","Wed Jan 10 16:16:29 2024","The main experiment item","no","fmri_experiment_final.osexp","C:\TASKS\CNC\fCourse2024_Ctrack\cognition","no","mono","no","24","no","black","no","yes","768","Google_1_Arthur Featherstone_1_oval.jpg","600","psycho","15","31","9","C:/TASKS/CNC/fCourse2024_Ctrack/cognition/subject-3039.csv","psycho","Lentiform Loewenfeld","3.3.12","Google_1_Arthur Featherstone_1_oval.jpg","0","1","1","1","1","1","1","NA","487.0655000122497","21182.913600001484","71543.34409999137","7988.05880000873","4804.01520000305","74.27769999776501","NA","487.0655000122497","147208.38690000528","1","5","2","psycho","1024","2","48000","-16","experiment","3039","odd","341048.85919998924","340437.9253999941","268189.323300001","158847.76679999777","288851.5383999911","NA","NA","NA","132627.91209999705","NA","3127.131699991878","341561.79899998824","339428.85379999643","74691.56929999008","3134.2053999978816","133639.3926999881","95887.44989999395","130368.59829998866","132542.18019999098","131377.75580000016","131788.99979998823","NA","132301.11639999086","132541.9586999924","342359.68599999615","100692.02109999605","130357.17179998755","341872.04519999796","341872.1106999874","339415.1037999982","141639.85909998883","141639.8046999966","Face Interval Estimation","0","197033.82270003203","60","no","680"
"1","NA","0","undefined","undefined","3242.155136066283","3242.155136066283","#ADADAD","psycho","psycho","psycho","undefined","undefined","undefined","undefined","undefined","undefined","undefined","undefined","48","48","5","0","0","0","0","0","0","0","0","48","48","0","0","0","0","9","9","9","9","NA","9","9","51","0","9","48","48","48","3","0","Wed Jan 10 16:16:29 2024","The main experiment item","no","fmri_experiment_final.osexp","C:\TASKS\CNC\fCourse2024_Ctrack\cognition","no","mono","no","24","no","black","no","yes","768","Google_1_George Baum_1_oval.jpg","1000","psycho","16","31","9","C:/TASKS/CNC/fCourse2024_Ctrack/cognition/subject-3039.csv","psycho","Lentiform Loewenfeld","3.3.12","Google_1_Henry Dominguez_9_oval.jpg","0","1","1","1","1","1","1","NA","737.6406000112183","21182.913600001484","71543.34409999137","7988.05880000873","4804.01520000305","74.27769999776501","NA","737.6406000112183","147208.38690000528","1","5","2","psycho","1024","2","48000","-16","experiment","3039","odd","344441.89579998783","343430.9971999901","268189.323300001","158847.76679999777","288851.5383999911","NA","NA","NA","132627.91209999705","NA","3127.131699991878","344951.3197999913","342419.9604999885","74691.56929999008","3134.2053999978816","133639.3926999881","95887.44989999395","130368.59829998866","132542.18019999098","131377.75580000016","131788.99979998823","NA","132301.11639999086","132541.9586999924","346000.70119999873","100692.02109999605","130357.17179998755","345262.4650999933","345262.53879998694","342408.51799999655","141639.85909998883","141639.8046999966","Face Interval Estimation","0","197771.46330004325","61","no","680"
"0","NA","0","undefined","undefined","3193.768593549096","3193.768593549096","#ADADAD","psycho","psycho","psycho","undefined","undefined","undefined","undefined","undefined","undefined","undefined","undefined","49","49","5","0","0","0","0","0","0","0","0","49","49","0","0","0","0","9","9","9","9","NA","9","9","52","0","9","49","49","49","3","0","Wed Jan 10 16:16:29 2024","The main experiment item","no","fmri_experiment_final.osexp","C:\TASKS\CNC\fCourse2024_Ctrack\cognition","no","mono","no","24","no","black","no","yes","768","Google_1_Sara Guajardo_1_oval.jpg","600","psycho","17","31","9","C:/TASKS/CNC/fCourse2024_Ctrack/cognition/subject-3039.csv","psycho","Lentiform Loewenfeld","3.3.12","Google_1_Ramona Thornburg_1_oval.jpg","0","1","1","1","1","1","1","NA","242.18950000067707","21182.913600001484","71543.34409999137","7988.05880000873","4804.01520000305","74.27769999776501","NA","242.18950000067707","147208.38690000528","1","5","2","psycho","1024","2","48000","-16","experiment","3039","odd","347681.2140999973","347070.7713999873","268189.323300001","158847.76679999777","288851.5383999911","NA","NA","NA","132627.91209999705","NA","3127.131699991878","348191.49579999794","346061.9428999926","74691.56929999008","3134.2053999978816","133639.3926999881","95887.44989999395","130368.59829998866","132542.18019999098","131377.75580000016","131788.99979998823","NA","132301.11639999086","132541.9586999924","348745.7029999932","100692.02109999605","130357.17179998755","348502.9069000011","348502.9962999979","346049.97849999927","141639.85909998883","141639.8046999966","Face Interval Estimation","0","198013.65280004393","62","no","680"
"1","NA","1","undefined","undefined","3150.4085634928383","3150.4085634928383","#ADADAD","psycho","psycho","psycho","undefined","undefined","undefined","undefined","undefined","undefined","undefined","undefined","50","50","5","0","0","0","0","0","0","0","0","50","50","0","0","0","0","9","9","9","9","NA","9","9","53","0","9","50","50","50","3","0","Wed Jan 10 16:16:29 2024","The main experiment item","no","fmri_experiment_final.osexp","C:\TASKS\CNC\fCourse2024_Ctrack\cognition","no","mono","no","24","no","black","no","yes","768","Google_1_Sean Revels_7_oval.jpg","600","psycho","18","31","9","C:/TASKS/CNC/fCourse2024_Ctrack/cognition/subject-3039.csv","psycho","Lentiform Loewenfeld","3.3.12","Google_1_Sean Revels_7_oval.jpg","0","1","1","1","1","1","1","NA","462.08670000487473","21182.913600001484","71543.34409999137","7988.05880000873","4804.01520000305","74.27769999776501","NA","462.08670000487473","147208.38690000528","1","5","2","psycho","1024","2","48000","-16","experiment","3039","odd","350429.61749999085","349818.9544999914","268189.323300001","158847.76679999777","288851.5383999911","NA","NA","NA","132627.91209999705","NA","3127.131699991878","350940.7585000008","348807.74279999605","74691.56929999008","3134.2053999978816","133639.3926999881","95887.44989999395","130368.59829998866","132542.18019999098","131377.75580000016","131788.99979998823","NA","132301.11639999086","132541.9586999924","351712.6791999908","100692.02109999605","130357.17179998755","351250.01239999256","351250.08319999324","348795.2737999876","141639.85909998883","141639.8046999966","Face Interval Estimation","0","198475.7395000488","63","no","680"
"1","NA","1","undefined","undefined","3107.247882813226","3107.247882813226","#ADADAD","psycho","psycho","psycho","undefined","undefined","undefined","undefined","undefined","undefined","undefined","undefined","51","51","5","0","0","0","0","0","0","0","0","51","51","0","0","0","0","9","9","9","9","NA","9","9","54","0","9","51","51","51","3","0","Wed Jan 10 16:16:29 2024","The main experiment item","no","fmri_experiment_final.osexp","C:\TASKS\CNC\fCourse2024_Ctrack\cognition","no","mono","no","24","no","black","no","yes","768","Brandon_Kunkel_9_oval.jpg","1000","psycho","19","31","9","C:/TASKS/CNC/fCourse2024_Ctrack/cognition/subject-3039.csv","psycho","Lentiform Loewenfeld","3.3.12","Brandon_Kunkel_9_oval.jpg","0","1","1","1","1","1","1","NA","388.1249999976717","21182.913600001484","71543.34409999137","7988.05880000873","4804.01520000305","74.27769999776501","NA","388.1249999976717","147208.38690000528","1","5","2","psycho","1024","2","48000","-16","experiment","3039","odd","353795.41189999145","352784.32199999224","268189.323300001","158847.76679999777","288851.5383999911","NA","NA","NA","132627.91209999705","NA","3127.131699991878","354306.7611999868","351775.4347000009","74691.56929999008","3134.2053999978816","133639.3926999881","95887.44989999395","130368.59829998866","132542.18019999098","131377.75580000016","131788.99979998823","NA","132301.11639999086","132541.9586999924","355004.7503999958","100692.02109999605","130357.17179998755","354615.9236999956","354616.0658000008","351762.76879999205","141639.85909998883","141639.8046999966","Face Interval Estimation","0","198863.86450004647","64","no","680"
"0","NA","1","undefined","undefined","3063.432293846675","3063.432293846675","#ADADAD","psycho","psycho","psycho","undefined","undefined","undefined","undefined","undefined","undefined","undefined","undefined","52","52","5","0","0","0","0","0","0","0","0","52","52","0","0","0","0","9","9","9","9","NA","9","9","55","0","9","52","52","52","3","0","Wed Jan 10 16:16:29 2024","The main experiment item","no","fmri_experiment_final.osexp","C:\TASKS\CNC\fCourse2024_Ctrack\cognition","no","mono","no","24","no","black","no","yes","768","Google_1_Sherri Vineyard_9_oval.jpg","600","psycho","20","31","9","C:/TASKS/CNC/fCourse2024_Ctrack/cognition/subject-3039.csv","psycho","Lentiform Loewenfeld","3.3.12","Google_1_Sherri Vineyard_9_oval.jpg","0","1","1","1","1","1","1","NA","259.2345999873942","21182.913600001484","71543.34409999137","7988.05880000873","4804.01520000305","74.27769999776501","NA","259.2345999873942","147208.38690000528","1","5","2","psycho","1024","2","48000","-16","experiment","3039","odd","356691.0984999995","356077.0444999944","268189.323300001","158847.76679999777","288851.5383999911","NA","NA","NA","132627.91209999705","NA","3127.131699991878","357200.0272999867","355065.2115999983","74691.56929999008","3134.2053999978816","133639.3926999881","95887.44989999395","130368.59829998866","132542.18019999098","131377.75580000016","131788.99979998823","NA","132301.11639999086","132541.9586999924","357771.708699991","100692.02109999605","130357.17179998755","357511.86210000014","357511.92900000024","355053.748899998","141639.85909998883","141639.8046999966","Face Interval Estimation","0","199123.09910003387","65","no","680"
"1","NA","0","undefined","undefined","3031.194681818747","3031.194681818747","#ADADAD","psycho","psycho","psycho","undefined","undefined","undefined","undefined","undefined","undefined","undefined","undefined","53","53","5","0","0","0","0","0","0","0","0","53","53","0","0","0","0","9","9","9","9","NA","9","9","56","0","9","53","53","53","3","0","Wed Jan 10 16:16:29 2024","The main experiment item","no","fmri_experiment_final.osexp","C:\TASKS\CNC\fCourse2024_Ctrack\cognition","no","mono","no","24","no","black","no","yes","768","Google_1_Stanley Easton_7_oval.jpg","1200","psycho","21","31","9","C:/TASKS/CNC/fCourse2024_Ctrack/cognition/subject-3039.csv","psycho","Lentiform Loewenfeld","3.3.12","Google_1_Sylvia Sprouse_11_oval.jpg","0","1","1","1","1","1","1","NA","935.7499000034295","21182.913600001484","71543.34409999137","7988.05880000873","4804.01520000305","74.27769999776501","NA","935.7499000034295","147208.38690000528","1","5","2","psycho","1024","2","48000","-16","experiment","3039","odd","360057.8450999892","358846.06519999215","268189.323300001","158847.76679999777","288851.5383999911","NA","NA","NA","132627.91209999705","NA","3127.131699991878","360567.0092999935","357834.83239999623","74691.56929999008","3134.2053999978816","133639.3926999881","95887.44989999395","130368.59829998866","132542.18019999098","131377.75580000016","131788.99979998823","NA","132301.11639999086","132541.9586999924","361815.79509998846","100692.02109999605","130357.17179998755","360879.2485999875","360879.4005999953","357823.55539999844","141639.85909998883","141639.8046999966","Face Interval Estimation","0","200058.8490000373","66","no","680"
"1","NA","0","undefined","undefined","2996.392325373495","2996.392325373495","#ADADAD","psycho","psycho","psycho","undefined","undefined","undefined","undefined","undefined","undefined","undefined","undefined","54","54","5","0","0","0","0","0","0","0","0","54","54","0","0","0","0","9","9","9","9","NA","9","9","57","0","9","54","54","54","3","0","Wed Jan 10 16:16:29 2024","The main experiment item","no","fmri_experiment_final.osexp","C:\TASKS\CNC\fCourse2024_Ctrack\cognition","no","mono","no","24","no","black","no","yes","768","Google_1_Nicole Canada_3_oval.jpg","1000","psycho","22","31","9","C:/TASKS/CNC/fCourse2024_Ctrack/cognition/subject-3039.csv","psycho","Lentiform Loewenfeld","3.3.12","Google_1_Debra Jankowski_17_oval.jpg","0","1","1","1","1","1","1","NA","699.43679998687","21182.913600001484","71543.34409999137","7988.05880000873","4804.01520000305","74.27769999776501","NA","699.43679998687","147208.38690000528","1","5","2","psycho","1024","2","48000","-16","experiment","3039","odd","363899.4698999886","362888.7939999986","268189.323300001","158847.76679999777","288851.5383999911","NA","NA","NA","132627.91209999705","NA","3127.131699991878","364410.68599998835","361879.2650999967","74691.56929999008","3134.2053999978816","133639.3926999881","95887.44989999395","130368.59829998866","132542.18019999098","131377.75580000016","131788.99979998823","NA","132301.11639999086","132541.9586999924","365419.6869999869","100692.02109999605","130357.17179998755","364719.6280999924","364719.6961000009","361865.6215999945","141639.85909998883","141639.8046999966","Face Interval Estimation","0","200758.28580002417","67","no","680"
"0","NA","0","undefined","undefined","2964.4279235298573","2964.4279235298573","#ADADAD","psycho","psycho","psycho","undefined","undefined","undefined","undefined","undefined","undefined","undefined","undefined","55","55","5","0","0","0","0","0","0","0","0","55","55","0","0","0","0","9","9","9","9","NA","9","9","58","0","9","55","55","55","3","0","Wed Jan 10 16:16:29 2024","The main experiment item","no","fmri_experiment_final.osexp","C:\TASKS\CNC\fCourse2024_Ctrack\cognition","no","mono","no","24","no","black","no","yes","768","Google_1_Kristen Barfield_15_oval.jpg","1200","psycho","23","31","9","C:/TASKS/CNC/fCourse2024_Ctrack/cognition/subject-3039.csv","psycho","Lentiform Loewenfeld","3.3.12","Adam_Koester_6_oval.jpg","0","1","1","1","1","1","1","NA","822.8130000061356","21182.913600001484","71543.34409999137","7988.05880000873","4804.01520000305","74.27769999776501","NA","822.8130000061356","147208.38690000528","1","5","2","psycho","1024","2","48000","-16","experiment","3039","odd","367702.7229999949","366491.9635999977","268189.323300001","158847.76679999777","288851.5383999911","NA","NA","NA","132627.91209999705","NA","3127.131699991878","368212.1768999932","365481.1956999911","74691.56929999008","3134.2053999978816","133639.3926999881","95887.44989999395","130368.59829998866","132542.18019999098","131377.75580000016","131788.99979998823","NA","132301.11639999086","132541.9586999924","369346.6611999902","100692.02109999605","130357.17179998755","368523.2481999992","368523.31619999313","365468.6939999956","141639.85909998883","141639.8046999966","Face Interval Estimation","0","201581.0988000303","68","no","680"
"0","NA","0","undefined","undefined","2934.694227536649","2934.694227536649","#ADADAD","psycho","psycho","psycho","undefined","undefined","undefined","undefined","undefined","undefined","undefined","undefined","56","56","5","0","0","0","0","0","0","0","0","56","56","0","0","0","0","9","9","9","9","NA","9","9","59","0","9","56","56","56","3","0","Wed Jan 10 16:16:29 2024","The main experiment item","no","fmri_experiment_final.osexp","C:\TASKS\CNC\fCourse2024_Ctrack\cognition","no","mono","no","24","no","black","no","yes","768","Google_1_Jeffrey Watson_1_oval.jpg","1200","psycho","24","31","9","C:/TASKS/CNC/fCourse2024_Ctrack/cognition/subject-3039.csv","psycho","Lentiform Loewenfeld","3.3.12","Google_1_Rosalie May_17_oval.jpg","0","1","1","1","1","1","1","NA","912.8028999984963","21182.913600001484","71543.34409999137","7988.05880000873","4804.01520000305","74.27769999776501","NA","912.8028999984963","147208.38690000528","1","5","2","psycho","1024","2","48000","-16","experiment","3039","odd","371628.00539999444","370417.626399998","268189.323300001","158847.76679999777","288851.5383999911","NA","NA","NA","132627.91209999705","NA","3127.131699991878","372140.40679999744","369406.7246999912","74691.56929999008","3134.2053999978816","133639.3926999881","95887.44989999395","130368.59829998866","132542.18019999098","131377.75580000016","131788.99979998823","NA","132301.11639999086","132541.9586999924","373362.6169999916","100692.02109999605","130357.17179998755","372449.22640000004","372449.30409999506","369393.98779999465","141639.85909998883","141639.8046999966","Face Interval Estimation","0","202493.9017000288","69","no","680"
"0","NA","1","undefined","undefined","2898.3658800005546","2898.3658800005546","#ADADAD","psycho","psycho","psycho","undefined","undefined","undefined","undefined","undefined","undefined","undefined","undefined","57","57","5","0","0","0","0","0","0","0","0","57","57","0","0","0","0","9","9","9","9","NA","9","9","60","0","9","57","57","57","3","0","Wed Jan 10 16:16:29 2024","The main experiment item","no","fmri_experiment_final.osexp","C:\TASKS\CNC\fCourse2024_Ctrack\cognition","no","mono","no","24","no","black","no","yes","768","Google_1_Philip Finkelstein_3_oval.jpg","800","psycho","25","31","9","C:/TASKS/CNC/fCourse2024_Ctrack/cognition/subject-3039.csv","psycho","Lentiform Loewenfeld","3.3.12","Google_1_Philip Finkelstein_3_oval.jpg","0","1","1","1","1","1","1","NA","391.7099000100279","21182.913600001484","71543.34409999137","7988.05880000873","4804.01520000305","74.27769999776501","NA","391.7099000100279","147208.38690000528","1","5","2","psycho","1024","2","48000","-16","experiment","3039","odd","375245.58589998924","374433.0587999866","268189.323300001","158847.76679999777","288851.5383999911","NA","NA","NA","132627.91209999705","NA","3127.131699991878","375757.98679998843","373424.32709998684","74691.56929999008","3134.2053999978816","133639.3926999881","95887.44989999395","130368.59829998866","132542.18019999098","131377.75580000016","131788.99979998823","NA","132301.11639999086","132541.9586999924","376460.73929998965","100692.02109999605","130357.17179998755","376068.36549998843","376068.4457999887","373411.1494999961","141639.85909998883","141639.8046999966","Face Interval Estimation","0","202885.61160003883","70","no","680"
