"Memorable","Memorable_1","Repetition","acc","accuracy","average_response_time","avg_rt","background","canvas_backend","clock_backend","color_backend","correct","correct_instruction_2_sketchpad","correct_instructions_sketchpad","correct_keypress_practice_sketchpad","correct_new_1_sketchpad","correct_new_3_keyboard_response","correct_trial_keyboard_response","correct_trigger_scanner_keyboard_response","count_ISI_sketchpad","count_Sample_interval_sketchpad","count_baseline_block_sketchpad","count_block1_loop","count_block2_loop","count_block3_loop","count_block4_loop","count_block5_loop","count_end_of_practice_sketchpad","count_end_sketchpad","count_experiment","count_filler_quick_response_sketchpad","count_fixation_sketchpad","count_instruction_2_sketchpad","count_instructions_sketchpad","count_keypress_practice_sketchpad","count_new_1_sketchpad","count_new_2_sketchpad","count_new_3_keyboard_response","count_new_3_sketchpad","count_new_4_sketchpad","count_new_5_sketchpad","count_new_7_sketchpad","count_new_8_sketchpad","count_new_logger","count_practice_2_loop","count_practice_sequence","count_response_sketchpad","count_trial_keyboard_response","count_trial_sequence","count_trigger_scanner_keyboard_response","count_waiting_scanner_sketchpad","datetime","description","disable_garbage_collection","experiment_file","experiment_path","font_bold","font_family","font_italic","font_size","font_underline","foreground","form_clicks","fullscreen","height","image","interval","keyboard_backend","live_row","live_row_block1_loop","live_row_practice_2_loop","logfile","mouse_backend","opensesame_codename","opensesame_version","probe","repeat_cycle","response","response_instruction_2_sketchpad","response_instructions_sketchpad","response_keypress_practice_sketchpad","response_new_1_sketchpad","response_new_3_keyboard_response","response_new_5_sketchpad","response_time","response_time_instruction_2_sketchpad","response_time_instructions_sketchpad","response_time_keypress_practice_sketchpad","response_time_new_1_sketchpad","response_time_new_3_keyboard_response","response_time_new_5_sketchpad","response_time_trial_keyboard_response","response_time_trigger_scanner_keyboard_response","response_trial_keyboard_response","response_trigger_scanner_keyboard_response","round_decimals","sampler_backend","sound_buf_size","sound_channels","sound_freq","sound_sample_size","start","subject_nr","subject_parity","time_ISI_sketchpad","time_Sample_interval_sketchpad","time_baseline_block_sketchpad","time_block1_loop","time_block2_loop","time_block3_loop","time_block4_loop","time_block5_loop","time_end_of_practice_sketchpad","time_end_sketchpad","time_experiment","time_filler_quick_response_sketchpad","time_fixation_sketchpad","time_instruction_2_sketchpad","time_instructions_sketchpad","time_keypress_practice_sketchpad","time_new_1_sketchpad","time_new_2_sketchpad","time_new_3_keyboard_response","time_new_3_sketchpad","time_new_4_sketchpad","time_new_5_sketchpad","time_new_7_sketchpad","time_new_8_sketchpad","time_new_logger","time_practice_2_loop","time_practice_sequence","time_response_sketchpad","time_trial_keyboard_response","time_trial_sequence","time_trigger_scanner_keyboard_response","time_waiting_scanner_sketchpad","title","total_correct","total_response_time","total_responses","uniform_coordinates","width"
"1","NA","1","undefined","undefined","2093.7521416684226","2093.7521416684226","#ADADAD","psycho","psycho","psycho","undefined","undefined","undefined","undefined","undefined","undefined","undefined","undefined","0","0","5","0","0","0","0","0","0","0","0","0","0","0","0","0","0","9","9","9","9","NA","9","9","3","0","9","0","0","0","3","0","Wed Jan 10 13:55:07 2024","The main experiment item","no","fmri_experiment_final.osexp","C:\TASKS\CNC\fCourse2024_Ctrack\cognition","no","mono","no","24","no","black","no","yes","768","Google_1_Nathan Kiger_3_oval.jpg","600","psycho","0","0","9","C:/TASKS/CNC/fCourse2024_Ctrack/cognition/subject-3037.csv","psycho","Lentiform Loewenfeld","3.3.12","Google_1_Nathan Kiger_3_oval.jpg","0","1","1","1","1","1","1","NA","381.1266999982763","12465.058499990846","101628.92190000275","15275.290800011135","5805.195400011144","376.07430000207387","NA","381.1266999982763","18859.73749999539","1","5","2","psycho","1024","2","48000","-16","experiment","3037","odd","191761.92619999347","191150.5196999933","NA","190075.77769999625","NA","NA","NA","NA","154918.18809999677","NA","3132.7939000038896","192274.0480999928","190140.88479999918","104781.51420000358","3140.6405000016093","155931.1774999951","117258.333699996","152188.57610000123","154530.41849999863","153197.6108999952","153810.63219999487","NA","154320.1335000049","154530.34969999862","192966.75239999604","123063.84170000092","152177.19919999945","192585.2445000055","192585.3083999973","190126.6081000067","171215.70390000124","171215.6485000014","Face Interval Estimation","0","25125.02570002107","12","no","680"
"1","NA","0","undefined","undefined","1992.2753461556008","1992.2753461556008","#ADADAD","psycho","psycho","psycho","undefined","undefined","undefined","undefined","undefined","undefined","undefined","undefined","1","1","5","0","0","0","0","0","0","0","0","1","1","0","0","0","0","9","9","9","9","NA","9","9","4","0","9","1","1","1","3","0","Wed Jan 10 13:55:07 2024","The main experiment item","no","fmri_experiment_final.osexp","C:\TASKS\CNC\fCourse2024_Ctrack\cognition","no","mono","no","24","no","black","no","yes","768","Google_1_Jonathan Marek_13_oval.jpg","1200","psycho","1","1","9","C:/TASKS/CNC/fCourse2024_Ctrack/cognition/subject-3037.csv","psycho","Lentiform Loewenfeld","3.3.12","Google_1_Louis Somerville_13_oval.jpg","0","1","1","1","1","1","1","NA","774.5538000017405","12465.058499990846","101628.92190000275","15275.290800011135","5805.195400011144","376.07430000207387","NA","774.5538000017405","18859.73749999539","1","5","2","psycho","1024","2","48000","-16","experiment","3037","odd","195253.64019999688","194042.33440000098","NA","190075.77769999625","NA","NA","NA","NA","154918.18809999677","NA","3132.7939000038896","195762.86529999925","193030.6511999952","104781.51420000358","3140.6405000016093","155931.1774999951","117258.333699996","152188.57610000123","154530.41849999863","153197.6108999952","153810.63219999487","NA","154320.1335000049","154530.34969999862","196848.711300001","123063.84170000092","152177.19919999945","196073.7722000049","196073.8474999962","193019.0167999972","171215.70390000124","171215.6485000014","Face Interval Estimation","0","25899.57950002281","13","no","680"
"1","NA","1","undefined","undefined","1898.0053285725132","1898.0053285725132","#ADADAD","psycho","psycho","psycho","undefined","undefined","undefined","undefined","undefined","undefined","undefined","undefined","2","2","5","0","0","0","0","0","0","0","0","2","2","0","0","0","0","9","9","9","9","NA","9","9","5","0","9","2","2","2","3","0","Wed Jan 10 13:55:07 2024","The main experiment item","no","fmri_experiment_final.osexp","C:\TASKS\CNC\fCourse2024_Ctrack\cognition","no","mono","no","24","no","black","no","yes","768","Google_1_Gregory Moreira_17_oval.jpg","1200","psycho","2","2","9","C:/TASKS/CNC/fCourse2024_Ctrack/cognition/subject-3037.csv","psycho","Lentiform Loewenfeld","3.3.12","Google_1_Gregory Moreira_17_oval.jpg","0","1","1","1","1","1","1","NA","672.4950999923749","12465.058499990846","101628.92190000275","15275.290800011135","5805.195400011144","376.07430000207387","NA","672.4950999923749","18859.73749999539","1","5","2","psycho","1024","2","48000","-16","experiment","3037","odd","199132.08389999636","197921.31210000662","NA","190075.77769999625","NA","NA","NA","NA","154918.18809999677","NA","3132.7939000038896","199640.80589999503","196911.07479999482","104781.51420000358","3140.6405000016093","155931.1774999951","117258.333699996","152188.57610000123","154530.41849999863","153197.6108999952","153810.63219999487","NA","154320.1335000049","154530.34969999862","200623.90039999445","123063.84170000092","152177.19919999945","199950.84889999998","199950.9243000066","196898.04630000435","171215.70390000124","171215.6485000014","Face Interval Estimation","0","26572.074600015185","14","no","680"
"1","NA","1","undefined","undefined","1802.704106667079","1802.704106667079","#ADADAD","psycho","psycho","psycho","undefined","undefined","undefined","undefined","undefined","undefined","undefined","undefined","3","3","5","0","0","0","0","0","0","0","0","3","3","0","0","0","0","9","9","9","9","NA","9","9","6","0","9","3","3","3","3","0","Wed Jan 10 13:55:07 2024","The main experiment item","no","fmri_experiment_final.osexp","C:\TASKS\CNC\fCourse2024_Ctrack\cognition","no","mono","no","24","no","black","no","yes","768","Google_1_Inez Hofer_5_oval.jpg","1000","psycho","3","3","9","C:/TASKS/CNC/fCourse2024_Ctrack/cognition/subject-3037.csv","psycho","Lentiform Loewenfeld","3.3.12","Google_1_Inez Hofer_5_oval.jpg","0","1","1","1","1","1","1","NA","468.48699999100063","12465.058499990846","101628.92190000275","15275.290800011135","5805.195400011144","376.07430000207387","NA","468.48699999100063","18859.73749999539","1","5","2","psycho","1024","2","48000","-16","experiment","3037","odd","202703.5218999954","201692.3589000071","NA","190075.77769999625","NA","NA","NA","NA","154918.18809999677","NA","3132.7939000038896","203215.12619999703","200683.56170000334","104781.51420000358","3140.6405000016093","155931.1774999951","117258.333699996","152188.57610000123","154530.41849999863","153197.6108999952","153810.63219999487","NA","154320.1335000049","154530.34969999862","203993.76409999968","123063.84170000092","152177.19919999945","203524.86390000558","203524.928800005","200671.2564000045","171215.70390000124","171215.6485000014","Face Interval Estimation","0","27040.561600006185","15","no","680"
"0","NA","0","undefined","undefined","1725.4490562499996","1725.4490562499996","#ADADAD","psycho","psycho","psycho","undefined","undefined","undefined","undefined","undefined","undefined","undefined","undefined","4","4","5","0","0","0","0","0","0","0","0","4","4","0","0","0","0","9","9","9","9","NA","9","9","7","0","9","4","4","4","3","0","Wed Jan 10 13:55:07 2024","The main experiment item","no","fmri_experiment_final.osexp","C:\TASKS\CNC\fCourse2024_Ctrack\cognition","no","mono","no","24","no","black","no","yes","768","Google_1_Fred Berube_15_oval.jpg","800","psycho","4","4","9","C:/TASKS/CNC/fCourse2024_Ctrack/cognition/subject-3037.csv","psycho","Lentiform Loewenfeld","3.3.12","Google_1_Kristin Skelly_3_oval.jpg","0","1","1","1","1","1","1","NA","566.6232999938074","12465.058499990846","101628.92190000275","15275.290800011135","5805.195400011144","376.07430000207387","NA","566.6232999938074","18859.73749999539","1","5","2","psycho","1024","2","48000","-16","experiment","3037","odd","205877.17589999374","205066.60340000235","NA","190075.77769999625","NA","NA","NA","NA","154918.18809999677","NA","3132.7939000038896","206388.9569000021","204056.0492999939","104781.51420000358","3140.6405000016093","155931.1774999951","117258.333699996","152188.57610000123","154530.41849999863","153197.6108999952","153810.63219999487","NA","154320.1335000049","154530.34969999862","207265.750999999","123063.84170000092","152177.19919999945","206698.7214999972","206698.7891000026","204042.6032999967","171215.70390000124","171215.6485000014","Face Interval Estimation","0","27607.184899999993","16","no","680"
"1","NA","0","undefined","undefined","1639.8562000001275","1639.8562000001275","#ADADAD","psycho","psycho","psycho","undefined","undefined","undefined","undefined","undefined","undefined","undefined","undefined","5","5","5","0","0","0","0","0","0","0","0","5","5","0","0","0","0","9","9","9","9","NA","9","9","8","0","9","5","5","5","3","0","Wed Jan 10 13:55:07 2024","The main experiment item","no","fmri_experiment_final.osexp","C:\TASKS\CNC\fCourse2024_Ctrack\cognition","no","mono","no","24","no","black","no","yes","768","Brian_Friedrich_19_oval.jpg","800","psycho","5","5","9","C:/TASKS/CNC/fCourse2024_Ctrack/cognition/subject-3037.csv","psycho","Lentiform Loewenfeld","3.3.12","Google_1_Frank Luke_9_oval.jpg","0","1","1","1","1","1","1","NA","270.3705000021728","12465.058499990846","101628.92190000275","15275.290800011135","5805.195400011144","376.07430000207387","NA","270.3705000021728","18859.73749999539","1","5","2","psycho","1024","2","48000","-16","experiment","3037","odd","209164.9569000001","208354.49129999324","NA","190075.77769999625","NA","NA","NA","NA","154918.18809999677","NA","3132.7939000038896","209674.8363999941","207341.96859999793","104781.51420000358","3140.6405000016093","155931.1774999951","117258.333699996","152188.57610000123","154530.41849999863","153197.6108999952","153810.63219999487","NA","154320.1335000049","154530.34969999862","210257.01610000397","123063.84170000092","152177.19919999945","209985.9271000023","209986.0258999979","207330.10439999634","171215.70390000124","171215.6485000014","Face Interval Estimation","0","27877.555400002166","17","no","680"
"0","NA","1","undefined","undefined","1562.8918388885925","1562.8918388885925","#ADADAD","psycho","psycho","psycho","undefined","undefined","undefined","undefined","undefined","undefined","undefined","undefined","6","6","5","0","0","0","0","0","0","0","0","6","6","0","0","0","0","9","9","9","9","NA","9","9","9","0","9","6","6","6","3","0","Wed Jan 10 13:55:07 2024","The main experiment item","no","fmri_experiment_final.osexp","C:\TASKS\CNC\fCourse2024_Ctrack\cognition","no","mono","no","24","no","black","no","yes","768","Google_1_Michael Turcotte_13_oval.jpg","600","psycho","6","6","9","C:/TASKS/CNC/fCourse2024_Ctrack/cognition/subject-3037.csv","psycho","Lentiform Loewenfeld","3.3.12","Google_1_Michael Turcotte_13_oval.jpg","0","1","1","1","1","1","1","NA","254.49769999249838","12465.058499990846","101628.92190000275","15275.290800011135","5805.195400011144","376.07430000207387","NA","254.49769999249838","18859.73749999539","1","5","2","psycho","1024","2","48000","-16","experiment","3037","odd","211939.43260000378","211326.78990000568","NA","190075.77769999625","NA","NA","NA","NA","154918.18809999677","NA","3132.7939000038896","212447.93720000598","210317.54770000407","104781.51420000358","3140.6405000016093","155931.1774999951","117258.333699996","152188.57610000123","154530.41849999863","153197.6108999952","153810.63219999487","NA","154320.1335000049","154530.34969999862","213013.74199999555","123063.84170000092","152177.19919999945","212758.79779999377","212758.87320000038","210305.83519999345","171215.70390000124","171215.6485000014","Face Interval Estimation","0","28132.053099994664","18","no","680"
"0","NA","1","undefined","undefined","1516.8288210521782","1516.8288210521782","#ADADAD","psycho","psycho","psycho","undefined","undefined","undefined","undefined","undefined","undefined","undefined","undefined","7","7","5","0","0","0","0","0","0","0","0","7","7","0","0","0","0","9","9","9","9","NA","9","9","10","0","9","7","7","7","3","0","Wed Jan 10 13:55:07 2024","The main experiment item","no","fmri_experiment_final.osexp","C:\TASKS\CNC\fCourse2024_Ctrack\cognition","no","mono","no","24","no","black","no","yes","768","Google_1_Paul Sun_9_oval.jpg","1200","psycho","7","7","9","C:/TASKS/CNC/fCourse2024_Ctrack/cognition/subject-3037.csv","psycho","Lentiform Loewenfeld","3.3.12","Google_1_Paul Sun_9_oval.jpg","0","1","1","1","1","1","1","NA","687.6944999967236","12465.058499990846","101628.92190000275","15275.290800011135","5805.195400011144","376.07430000207387","NA","687.6944999967236","18859.73749999539","1","5","2","psycho","1024","2","48000","-16","experiment","3037","odd","215297.11790000147","214086.53590000176","NA","190075.77769999625","NA","NA","NA","NA","154918.18809999677","NA","3132.7939000038896","215808.10419999762","213076.17359999858","104781.51420000358","3140.6405000016093","155931.1774999951","117258.333699996","152188.57610000123","154530.41849999863","153197.6108999952","153810.63219999487","NA","154320.1335000049","154530.34969999862","216805.75359999784","123063.84170000092","152177.19919999945","216117.6284999965","216117.69440000353","213063.39700000535","171215.70390000124","171215.6485000014","Face Interval Estimation","0","28819.747599991388","19","no","680"
"0","NA","1","undefined","undefined","1470.449264999479","1470.449264999479","#ADADAD","psycho","psycho","psycho","undefined","undefined","undefined","undefined","undefined","undefined","undefined","undefined","8","8","5","0","0","0","0","0","0","0","0","8","8","0","0","0","0","9","9","9","9","NA","9","9","11","0","9","8","8","8","3","0","Wed Jan 10 13:55:07 2024","The main experiment item","no","fmri_experiment_final.osexp","C:\TASKS\CNC\fCourse2024_Ctrack\cognition","no","mono","no","24","no","black","no","yes","768","Google_1_Kara Tsang_15_oval.jpg","1200","psycho","8","8","9","C:/TASKS/CNC/fCourse2024_Ctrack/cognition/subject-3037.csv","psycho","Lentiform Loewenfeld","3.3.12","Google_1_Kara Tsang_15_oval.jpg","0","1","1","1","1","1","1","NA","589.2376999981934","12465.058499990846","101628.92190000275","15275.290800011135","5805.195400011144","376.07430000207387","NA","589.2376999981934","18859.73749999539","1","5","2","psycho","1024","2","48000","-16","experiment","3037","odd","219088.91950000543","217878.13399999868","NA","190075.77769999625","NA","NA","NA","NA","154918.18809999677","NA","3132.7939000038896","219598.54219999397","216867.81019999762","104781.51420000358","3140.6405000016093","155931.1774999951","117258.333699996","152188.57610000123","154530.41849999863","153197.6108999952","153810.63219999487","NA","154320.1335000049","154530.34969999862","220499.770800001","123063.84170000092","152177.19919999945","219910.07739999623","219910.14829999767","216855.75970000355","171215.70390000124","171215.6485000014","Face Interval Estimation","0","29408.98529998958","20","no","680"
"0","NA","0","undefined","undefined","1426.6646619043536","1426.6646619043536","#ADADAD","psycho","psycho","psycho","undefined","undefined","undefined","undefined","undefined","undefined","undefined","undefined","9","9","5","0","0","0","0","0","0","0","0","9","9","0","0","0","0","9","9","9","9","NA","9","9","12","0","9","9","9","9","3","0","Wed Jan 10 13:55:07 2024","The main experiment item","no","fmri_experiment_final.osexp","C:\TASKS\CNC\fCourse2024_Ctrack\cognition","no","mono","no","24","no","black","no","yes","768","Google_1_Larry Perryman_5_oval.jpg","800","psycho","9","9","9","C:/TASKS/CNC/fCourse2024_Ctrack/cognition/subject-3037.csv","psycho","Lentiform Loewenfeld","3.3.12","Allison_Samson_13_oval.jpg","0","1","1","1","1","1","1","NA","550.9726000018418","12465.058499990846","101628.92190000275","15275.290800011135","5805.195400011144","376.07430000207387","NA","550.9726000018418","18859.73749999539","1","5","2","psycho","1024","2","48000","-16","experiment","3037","odd","222384.3882999936","221572.00299999386","NA","190075.77769999625","NA","NA","NA","NA","154918.18809999677","NA","3132.7939000038896","222893.17870000377","220562.0956000057","104781.51420000358","3140.6405000016093","155931.1774999951","117258.333699996","152188.57610000123","154530.41849999863","153197.6108999952","153810.63219999487","NA","154320.1335000049","154530.34969999862","223754.7765000054","123063.84170000092","152177.19919999945","223203.35389999673","223203.41790000384","220549.88200000662","171215.70390000124","171215.6485000014","Face Interval Estimation","0","29959.957899991423","21","no","680"
"0","NA","1","undefined","undefined","1384.8665954547787","1384.8665954547787","#ADADAD","psycho","psycho","psycho","undefined","undefined","undefined","undefined","undefined","undefined","undefined","undefined","10","10","5","0","0","0","0","0","0","0","0","10","10","0","0","0","0","9","9","9","9","NA","9","9","13","0","9","10","10","10","3","0","Wed Jan 10 13:55:07 2024","The main experiment item","no","fmri_experiment_final.osexp","C:\TASKS\CNC\fCourse2024_Ctrack\cognition","no","mono","no","24","no","black","no","yes","768","Google_1_Molly Mccants_15_oval.jpg","600","psycho","10","10","9","C:/TASKS/CNC/fCourse2024_Ctrack/cognition/subject-3037.csv","psycho","Lentiform Loewenfeld","3.3.12","Google_1_Molly Mccants_15_oval.jpg","0","1","1","1","1","1","1","NA","507.10720001370646","12465.058499990846","101628.92190000275","15275.290800011135","5805.195400011144","376.07430000207387","NA","507.10720001370646","18859.73749999539","1","5","2","psycho","1024","2","48000","-16","experiment","3037","odd","225437.0338000008","224824.60989999527","NA","190075.77769999625","NA","NA","NA","NA","154918.18809999677","NA","3132.7939000038896","225946.22329999402","223815.4957999941","104781.51420000358","3140.6405000016093","155931.1774999951","117258.333699996","152188.57610000123","154530.41849999863","153197.6108999952","153810.63219999487","NA","154320.1335000049","154530.34969999862","226763.7274000008","123063.84170000092","152177.19919999945","226256.20109999727","226256.2712999934","223803.40999999316","171215.70390000124","171215.6485000014","Face Interval Estimation","0","30467.06510000513","22","no","680"
"0","NA","1","undefined","undefined","1341.7996608698993","1341.7996608698993","#ADADAD","psycho","psycho","psycho","undefined","undefined","undefined","undefined","undefined","undefined","undefined","undefined","11","11","5","0","0","0","0","0","0","0","0","11","11","0","0","0","0","9","9","9","9","NA","9","9","14","0","9","11","11","11","3","0","Wed Jan 10 13:55:07 2024","The main experiment item","no","fmri_experiment_final.osexp","C:\TASKS\CNC\fCourse2024_Ctrack\cognition","no","mono","no","24","no","black","no","yes","768","Google_1_Keith Priester_5_oval.jpg","800","psycho","11","11","9","C:/TASKS/CNC/fCourse2024_Ctrack/cognition/subject-3037.csv","psycho","Lentiform Loewenfeld","3.3.12","Google_1_Keith Priester_5_oval.jpg","0","1","1","1","1","1","1","NA","394.3271000025561","12465.058499990846","101628.92190000275","15275.290800011135","5805.195400011144","376.07430000207387","NA","394.3271000025561","18859.73749999539","1","5","2","psycho","1024","2","48000","-16","experiment","3037","odd","228646.84780000243","227836.12930000527","NA","190075.77769999625","NA","NA","NA","NA","154918.18809999677","NA","3132.7939000038896","229156.85640000447","226824.19709999522","104781.51420000358","3140.6405000016093","155931.1774999951","117258.333699996","152188.57610000123","154530.41849999863","153197.6108999952","153810.63219999487","NA","154320.1335000049","154530.34969999862","229863.75040000712","123063.84170000092","152177.19919999945","229468.98210000654","229469.05369999877","226812.91839999903","171215.70390000124","171215.6485000014","Face Interval Estimation","0","30861.392200007685","23","no","680"
"1","NA","1","undefined","undefined","1298.2313208334137","1298.2313208334137","#ADADAD","psycho","psycho","psycho","undefined","undefined","undefined","undefined","undefined","undefined","undefined","undefined","12","12","5","0","0","0","0","0","0","0","0","12","12","0","0","0","0","9","9","9","9","NA","9","9","15","0","9","12","12","12","3","0","Wed Jan 10 13:55:07 2024","The main experiment item","no","fmri_experiment_final.osexp","C:\TASKS\CNC\fCourse2024_Ctrack\cognition","no","mono","no","24","no","black","no","yes","768","Google_1_Pamela Bermudez_3_oval.jpg","600","psycho","12","12","9","C:/TASKS/CNC/fCourse2024_Ctrack/cognition/subject-3037.csv","psycho","Lentiform Loewenfeld","3.3.12","Google_1_Pamela Bermudez_3_oval.jpg","0","1","1","1","1","1","1","NA","296.1594999942463","12465.058499990846","101628.92190000275","15275.290800011135","5805.195400011144","376.07430000207387","NA","296.1594999942463","18859.73749999539","1","5","2","psycho","1024","2","48000","-16","experiment","3037","odd","231546.01930000354","230935.96960000286","NA","190075.77769999625","NA","NA","NA","NA","154918.18809999677","NA","3132.7939000038896","232056.89409999468","229924.07809999713","104781.51420000358","3140.6405000016093","155931.1774999951","117258.333699996","152188.57610000123","154530.41849999863","153197.6108999952","153810.63219999487","NA","154320.1335000049","154530.34969999862","232665.84440000588","123063.84170000092","152177.19919999945","232369.17809999431","232369.2444000044","229911.29819999333","171215.70390000124","171215.6485000014","Face Interval Estimation","0","31157.55170000193","24","no","680"
"0","NA","0","undefined","undefined","1273.659896000172","1273.659896000172","#ADADAD","psycho","psycho","psycho","undefined","undefined","undefined","undefined","undefined","undefined","undefined","undefined","13","13","5","0","0","0","0","0","0","0","0","13","13","0","0","0","0","9","9","9","9","NA","9","9","16","0","9","13","13","13","3","0","Wed Jan 10 13:55:07 2024","The main experiment item","no","fmri_experiment_final.osexp","C:\TASKS\CNC\fCourse2024_Ctrack\cognition","no","mono","no","24","no","black","no","yes","768","Google_1_Stephen Masterson_7_oval.jpg","1200","psycho","13","13","9","C:/TASKS/CNC/fCourse2024_Ctrack/cognition/subject-3037.csv","psycho","Lentiform Loewenfeld","3.3.12","Google_1_Robert Ross_11_oval.jpg","0","1","1","1","1","1","1","NA","683.9457000023685","12465.058499990846","101628.92190000275","15275.290800011135","5805.195400011144","376.07430000207387","NA","683.9457000023685","18859.73749999539","1","5","2","psycho","1024","2","48000","-16","experiment","3037","odd","234951.12719999452","233739.6929999959","NA","190075.77769999625","NA","NA","NA","NA","154918.18809999677","NA","3132.7939000038896","235461.1275000061","232727.2413000028","104781.51420000358","3140.6405000016093","155931.1774999951","117258.333699996","152188.57610000123","154530.41849999863","153197.6108999952","153810.63219999487","NA","154320.1335000049","154530.34969999862","236456.77839999553","123063.84170000092","152177.19919999945","235772.3263999942","235772.40600000368","232715.79279999423","171215.70390000124","171215.6485000014","Face Interval Estimation","0","31841.4974000043","25","no","680"
"1","NA","1","undefined","undefined","1243.1337576927035","1243.1337576927035","#ADADAD","psycho","psycho","psycho","undefined","undefined","undefined","undefined","undefined","undefined","undefined","undefined","14","14","5","0","0","0","0","0","0","0","0","14","14","0","0","0","0","9","9","9","9","NA","9","9","17","0","9","14","14","14","3","0","Wed Jan 10 13:55:07 2024","The main experiment item","no","fmri_experiment_final.osexp","C:\TASKS\CNC\fCourse2024_Ctrack\cognition","no","mono","no","24","no","black","no","yes","768","Google_1_Ernest Swisher_9_oval.jpg","1000","psycho","14","14","9","C:/TASKS/CNC/fCourse2024_Ctrack/cognition/subject-3037.csv","psycho","Lentiform Loewenfeld","3.3.12","Google_1_Ernest Swisher_9_oval.jpg","0","1","1","1","1","1","1","NA","479.980300005991","12465.058499990846","101628.92190000275","15275.290800011135","5805.195400011144","376.07430000207387","NA","479.980300005991","18859.73749999539","1","5","2","psycho","1024","2","48000","-16","experiment","3037","odd","238556.024599995","237545.25399999693","NA","190075.77769999625","NA","NA","NA","NA","154918.18809999677","NA","3132.7939000038896","239066.1315000034","236534.51120000682","104781.51420000358","3140.6405000016093","155931.1774999951","117258.333699996","152188.57610000123","154530.41849999863","153197.6108999952","153810.63219999487","NA","154320.1335000049","154530.34969999862","239856.7558000068","123063.84170000092","152177.19919999945","239376.31249999686","239376.3903999934","236522.1265","171215.70390000124","171215.6485000014","Face Interval Estimation","0","32321.47770001029","26","no","680"
"1","NA","1","undefined","undefined","1214.375077778068","1214.375077778068","#ADADAD","psycho","psycho","psycho","undefined","undefined","undefined","undefined","undefined","undefined","undefined","undefined","15","15","5","0","0","0","0","0","0","0","0","15","15","0","0","0","0","9","9","9","9","NA","9","9","18","0","9","15","15","15","3","0","Wed Jan 10 13:55:07 2024","The main experiment item","no","fmri_experiment_final.osexp","C:\TASKS\CNC\fCourse2024_Ctrack\cognition","no","mono","no","24","no","black","no","yes","768","Google_1_Carlos Diep_19_oval.jpg","1200","psycho","15","15","9","C:/TASKS/CNC/fCourse2024_Ctrack/cognition/subject-3037.csv","psycho","Lentiform Loewenfeld","3.3.12","Google_1_Carlos Diep_19_oval.jpg","0","1","1","1","1","1","1","NA","466.64939999755006","12465.058499990846","101628.92190000275","15275.290800011135","5805.195400011144","376.07430000207387","NA","466.64939999755006","18859.73749999539","1","5","2","psycho","1024","2","48000","-16","experiment","3037","odd","242138.3613999933","240927.68809999689","NA","190075.77769999625","NA","NA","NA","NA","154918.18809999677","NA","3132.7939000038896","242649.65859999938","239917.29840000335","104781.51420000358","3140.6405000016093","155931.1774999951","117258.333699996","152188.57610000123","154530.41849999863","153197.6108999952","153810.63219999487","NA","154320.1335000049","154530.34969999862","243425.76800000097","123063.84170000092","152177.19919999945","242958.64329999313","242958.71479999914","239904.5904999948","171215.70390000124","171215.6485000014","Face Interval Estimation","0","32788.12710000784","27","no","680"
"0","NA","1","undefined","undefined","1177.7103785716463","1177.7103785716463","#ADADAD","psycho","psycho","psycho","undefined","undefined","undefined","undefined","undefined","undefined","undefined","undefined","16","16","5","0","0","0","0","0","0","0","0","16","16","0","0","0","0","9","9","9","9","NA","9","9","19","0","9","16","16","16","3","0","Wed Jan 10 13:55:07 2024","The main experiment item","no","fmri_experiment_final.osexp","C:\TASKS\CNC\fCourse2024_Ctrack\cognition","no","mono","no","24","no","black","no","yes","768","Google_1_Erica Vue_9_oval.jpg","600","psycho","16","16","9","C:/TASKS/CNC/fCourse2024_Ctrack/cognition/subject-3037.csv","psycho","Lentiform Loewenfeld","3.3.12","Google_1_Erica Vue_9_oval.jpg","0","1","1","1","1","1","1","NA","187.7634999982547","12465.058499990846","101628.92190000275","15275.290800011135","5805.195400011144","376.07430000207387","NA","187.7634999982547","18859.73749999539","1","5","2","psycho","1024","2","48000","-16","experiment","3037","odd","245122.3755999963","244511.29850000143","NA","190075.77769999625","NA","NA","NA","NA","154918.18809999677","NA","3132.7939000038896","245634.8039000004","243501.79199999548","104781.51420000358","3140.6405000016093","155931.1774999951","117258.333699996","152188.57610000123","154530.41849999863","153197.6108999952","153810.63219999487","NA","154320.1335000049","154530.34969999862","246132.6517999987","123063.84170000092","152177.19919999945","245944.4810999994","245944.5524000039","243488.74260000593","171215.70390000124","171215.6485000014","Face Interval Estimation","0","32975.890600006096","28","no","680"
"0","NA","1","undefined","undefined","1156.4755965518998","1156.4755965518998","#ADADAD","psycho","psycho","psycho","undefined","undefined","undefined","undefined","undefined","undefined","undefined","undefined","17","17","5","0","0","0","0","0","0","0","0","17","17","0","0","0","0","9","9","9","9","NA","9","9","20","0","9","17","17","17","3","0","Wed Jan 10 13:55:07 2024","The main experiment item","no","fmri_experiment_final.osexp","C:\TASKS\CNC\fCourse2024_Ctrack\cognition","no","mono","no","24","no","black","no","yes","768","Google_1_Victor Ellinger_16_oval.jpg","1200","psycho","17","17","9","C:/TASKS/CNC/fCourse2024_Ctrack/cognition/subject-3037.csv","psycho","Lentiform Loewenfeld","3.3.12","Google_1_Victor Ellinger_16_oval.jpg","0","1","1","1","1","1","1","NA","561.9016999989981","12465.058499990846","101628.92190000275","15275.290800011135","5805.195400011144","376.07430000207387","NA","561.9016999989981","18859.73749999539","1","5","2","psycho","1024","2","48000","-16","experiment","3037","odd","248417.43430000497","247204.31489999464","NA","190075.77769999625","NA","NA","NA","NA","154918.18809999677","NA","3132.7939000038896","248926.53519999294","246192.95460000285","104781.51420000358","3140.6405000016093","155931.1774999951","117258.333699996","152188.57610000123","154530.41849999863","153197.6108999952","153810.63219999487","NA","154320.1335000049","154530.34969999862","249800.86059999303","123063.84170000092","152177.19919999945","249238.3928000054","249238.46540000523","246182.0996000024","171215.70390000124","171215.6485000014","Face Interval Estimation","0","33537.792300005094","29","no","680"
"1","NA","0","undefined","undefined","1137.3242333337355","1137.3242333337355","#ADADAD","psycho","psycho","psycho","undefined","undefined","undefined","undefined","undefined","undefined","undefined","undefined","18","18","5","0","0","0","0","0","0","0","0","18","18","0","0","0","0","9","9","9","9","NA","9","9","21","0","9","18","18","18","3","0","Wed Jan 10 13:55:07 2024","The main experiment item","no","fmri_experiment_final.osexp","C:\TASKS\CNC\fCourse2024_Ctrack\cognition","no","mono","no","24","no","black","no","yes","768","Google_1_Patsy Steadman_3_oval.jpg","1000","psycho","18","18","9","C:/TASKS/CNC/fCourse2024_Ctrack/cognition/subject-3037.csv","psycho","Lentiform Loewenfeld","3.3.12","Google_1_Carolyn Kiley_7_oval.jpg","0","1","1","1","1","1","1","NA","581.9347000069683","12465.058499990846","101628.92190000275","15275.290800011135","5805.195400011144","376.07430000207387","NA","581.9347000069683","18859.73749999539","1","5","2","psycho","1024","2","48000","-16","experiment","3037","odd","251882.76419999602","250872.17669999518","NA","190075.77769999625","NA","NA","NA","NA","154918.18809999677","NA","3132.7939000038896","252392.18399999663","249860.5064000003","104781.51420000358","3140.6405000016093","155931.1774999951","117258.333699996","152188.57610000123","154530.41849999863","153197.6108999952","153810.63219999487","NA","154320.1335000049","154530.34969999862","253286.77479999897","123063.84170000092","152177.19919999945","252704.34779999778","252704.4298999972","249849.53530000348","171215.70390000124","171215.6485000014","Face Interval Estimation","0","34119.72700001206","30","no","680"
"1","NA","0","undefined","undefined","1119.1061000004524","1119.1061000004524","#ADADAD","psycho","psycho","psycho","undefined","undefined","undefined","undefined","undefined","undefined","undefined","undefined","19","19","5","0","0","0","0","0","0","0","0","19","19","0","0","0","0","9","9","9","9","NA","9","9","22","0","9","19","19","19","3","0","Wed Jan 10 13:55:07 2024","The main experiment item","no","fmri_experiment_final.osexp","C:\TASKS\CNC\fCourse2024_Ctrack\cognition","no","mono","no","24","no","black","no","yes","768","Google_1_Russell Baeza_13_oval.jpg","1200","psycho","19","19","9","C:/TASKS/CNC/fCourse2024_Ctrack/cognition/subject-3037.csv","psycho","Lentiform Loewenfeld","3.3.12","Google_1_Marjorie Petty_11_oval.jpg","0","1","1","1","1","1","1","NA","572.5621000019601","12465.058499990846","101628.92190000275","15275.290800011135","5805.195400011144","376.07430000207387","NA","572.5621000019601","18859.73749999539","1","5","2","psycho","1024","2","48000","-16","experiment","3037","odd","255570.2971999999","254358.56170000625","NA","190075.77769999625","NA","NA","NA","NA","154918.18809999677","NA","3132.7939000038896","256079.74469999317","253348.6944000033","104781.51420000358","3140.6405000016093","155931.1774999951","117258.333699996","152188.57610000123","154530.41849999863","153197.6108999952","153810.63219999487","NA","154320.1335000049","154530.34969999862","256963.7764000072","123063.84170000092","152177.19919999945","256390.72910000687","256390.79879999917","253336.84420000645","171215.70390000124","171215.6485000014","Face Interval Estimation","0","34692.28910001402","31","no","680"
"1","NA","0","undefined","undefined","1107.595362500433","1107.595362500433","#ADADAD","psycho","psycho","psycho","undefined","undefined","undefined","undefined","undefined","undefined","undefined","undefined","20","20","5","0","0","0","0","0","0","0","0","20","20","0","0","0","0","9","9","9","9","NA","9","9","23","0","9","20","20","20","3","0","Wed Jan 10 13:55:07 2024","The main experiment item","no","fmri_experiment_final.osexp","C:\TASKS\CNC\fCourse2024_Ctrack\cognition","no","mono","no","24","no","black","no","yes","768","Google_1_Glenn Leyba_19_oval.jpg","1000","psycho","20","20","9","C:/TASKS/CNC/fCourse2024_Ctrack/cognition/subject-3037.csv","psycho","Lentiform Loewenfeld","3.3.12","Google_1_Gregory Heflin_9_oval.jpg","0","1","1","1","1","1","1","NA","750.762499999837","12465.058499990846","101628.92190000275","15275.290800011135","5805.195400011144","376.07430000207387","NA","750.762499999837","18859.73749999539","1","5","2","psycho","1024","2","48000","-16","experiment","3037","odd","259046.02920000616","258035.98220000276","NA","190075.77769999625","NA","NA","NA","NA","154918.18809999677","NA","3132.7939000038896","259554.64519999805","257025.83539999614","104781.51420000358","3140.6405000016093","155931.1774999951","117258.333699996","152188.57610000123","154530.41849999863","153197.6108999952","153810.63219999487","NA","154320.1335000049","154530.34969999862","260615.73740000313","123063.84170000092","152177.19919999945","259864.50169999443","259864.57340000197","257013.24859999295","171215.70390000124","171215.6485000014","Face Interval Estimation","0","35443.05160001386","32","no","680"
"0","NA","0","undefined","undefined","1089.231333333759","1089.231333333759","#ADADAD","psycho","psycho","psycho","undefined","undefined","undefined","undefined","undefined","undefined","undefined","undefined","21","21","5","0","0","0","0","0","0","0","0","21","21","0","0","0","0","9","9","9","9","NA","9","9","24","0","9","21","21","21","3","0","Wed Jan 10 13:55:07 2024","The main experiment item","no","fmri_experiment_final.osexp","C:\TASKS\CNC\fCourse2024_Ctrack\cognition","no","mono","no","24","no","black","no","yes","768","Google_1_Vicky Weis_15_oval.jpg","1000","psycho","21","21","9","C:/TASKS/CNC/fCourse2024_Ctrack/cognition/subject-3037.csv","psycho","Lentiform Loewenfeld","3.3.12","Google_1_Jonathan Bozarth_17_oval.jpg","0","1","1","1","1","1","1","NA","501.5824000001885","12465.058499990846","101628.92190000275","15275.290800011135","5805.195400011144","376.07430000207387","NA","501.5824000001885","18859.73749999539","1","5","2","psycho","1024","2","48000","-16","experiment","3037","odd","262699.523999996","261687.35520000337","NA","190075.77769999625","NA","NA","NA","NA","154918.18809999677","NA","3132.7939000038896","263208.0625999952","260677.5032000005","104781.51420000358","3140.6405000016093","155931.1774999951","117258.333699996","152188.57610000123","154530.41849999863","153197.6108999952","153810.63219999487","NA","154320.1335000049","154530.34969999862","264021.76370000234","123063.84170000092","152177.19919999945","263519.67320000404","263519.756099995","260665.14120000647","171215.70390000124","171215.6485000014","Face Interval Estimation","0","35944.63400001405","33","no","680"
"1","NA","0","undefined","undefined","1078.5218441181796","1078.5218441181796","#ADADAD","psycho","psycho","psycho","undefined","undefined","undefined","undefined","undefined","undefined","undefined","undefined","22","22","5","0","0","0","0","0","0","0","0","22","22","0","0","0","0","9","9","9","9","NA","9","9","25","0","9","22","22","22","3","0","Wed Jan 10 13:55:07 2024","The main experiment item","no","fmri_experiment_final.osexp","C:\TASKS\CNC\fCourse2024_Ctrack\cognition","no","mono","no","24","no","black","no","yes","768","Google_1_Justin Woodard_15_oval.jpg","1200","psycho","22","22","9","C:/TASKS/CNC/fCourse2024_Ctrack/cognition/subject-3037.csv","psycho","Lentiform Loewenfeld","3.3.12","Google_1_Laura Hines_7_oval.jpg","0","1","1","1","1","1","1","NA","725.108700004057","12465.058499990846","101628.92190000275","15275.290800011135","5805.195400011144","376.07430000207387","NA","725.108700004057","18859.73749999539","1","5","2","psycho","1024","2","48000","-16","experiment","3037","odd","266303.67300000216","265092.764800007","NA","190075.77769999625","NA","NA","NA","NA","154918.18809999677","NA","3132.7939000038896","266816.81079999544","264083.7892999989","104781.51420000358","3140.6405000016093","155931.1774999951","117258.333699996","152188.57610000123","154530.41849999863","153197.6108999952","153810.63219999487","NA","154320.1335000049","154530.34969999862","267851.7773000058","123063.84170000092","152177.19919999945","267126.165099995","267126.22869999905","264070.7958999992","171215.70390000124","171215.6485000014","Face Interval Estimation","0","36669.742700018105","34","no","680"
"1","NA","1","undefined","undefined","1070.6972628574088","1070.6972628574088","#ADADAD","psycho","psycho","psycho","undefined","undefined","undefined","undefined","undefined","undefined","undefined","undefined","23","23","5","0","0","0","0","0","0","0","0","23","23","0","0","0","0","9","9","9","9","NA","9","9","26","0","9","23","23","23","3","0","Wed Jan 10 13:55:07 2024","The main experiment item","no","fmri_experiment_final.osexp","C:\TASKS\CNC\fCourse2024_Ctrack\cognition","no","mono","no","24","no","black","no","yes","768","Google_1_Kristin Catalan_7_oval.jpg","1200","psycho","23","23","9","C:/TASKS/CNC/fCourse2024_Ctrack/cognition/subject-3037.csv","psycho","Lentiform Loewenfeld","3.3.12","Google_1_Kristin Catalan_7_oval.jpg","0","1","1","1","1","1","1","NA","804.6614999911981","12465.058499990846","101628.92190000275","15275.290800011135","5805.195400011144","376.07430000207387","NA","804.6614999911981","18859.73749999539","1","5","2","psycho","1024","2","48000","-16","experiment","3037","odd","270154.02479999466","268940.4574999935","NA","190075.77769999625","NA","NA","NA","NA","154918.18809999677","NA","3132.7939000038896","270662.62069999357","267931.3300000067","104781.51420000358","3140.6405000016093","155931.1774999951","117258.333699996","152188.57610000123","154530.41849999863","153197.6108999952","153810.63219999487","NA","154320.1335000049","154530.34969999862","271777.8468000033","123063.84170000092","152177.19919999945","270972.56280000147","270972.63770000427","267918.72250000597","171215.70390000124","171215.6485000014","Face Interval Estimation","0","37474.4042000093","35","no","680"
"0","NA","0","undefined","undefined","1059.0989277782985","1059.0989277782985","#ADADAD","psycho","psycho","psycho","undefined","undefined","undefined","undefined","undefined","undefined","undefined","undefined","24","24","5","0","0","0","0","0","0","0","0","24","24","0","0","0","0","9","9","9","9","NA","9","9","27","0","9","24","24","24","3","0","Wed Jan 10 13:55:07 2024","The main experiment item","no","fmri_experiment_final.osexp","C:\TASKS\CNC\fCourse2024_Ctrack\cognition","no","mono","no","24","no","black","no","yes","768","Google_1_Barbara Oakes_13_oval.jpg","1200","psycho","24","24","9","C:/TASKS/CNC/fCourse2024_Ctrack/cognition/subject-3037.csv","psycho","Lentiform Loewenfeld","3.3.12","Albert_Waring_1_oval.jpg","0","1","1","1","1","1","1","NA","653.1572000094457","12465.058499990846","101628.92190000275","15275.290800011135","5805.195400011144","376.07430000207387","NA","653.1572000094457","18859.73749999539","1","5","2","psycho","1024","2","48000","-16","experiment","3037","odd","274061.95230000594","272852.5690999959","NA","190075.77769999625","NA","NA","NA","NA","154918.18809999677","NA","3132.7939000038896","274572.4392999982","271840.7969999971","104781.51420000358","3140.6405000016093","155931.1774999951","117258.333699996","152188.57610000123","154530.41849999863","153197.6108999952","153810.63219999487","NA","154320.1335000049","154530.34969999862","275535.76169999724","123063.84170000092","152177.19919999945","274882.1093000006","274882.1755999961","271829.16829999886","171215.70390000124","171215.6485000014","Face Interval Estimation","0","38127.56140001875","36","no","680"
"1","NA","0","undefined","undefined","1052.474648649238","1052.474648649238","#ADADAD","psycho","psycho","psycho","undefined","undefined","undefined","undefined","undefined","undefined","undefined","undefined","25","25","5","0","0","0","0","0","0","0","0","25","25","0","0","0","0","9","9","9","9","NA","9","9","28","0","9","25","25","25","3","0","Wed Jan 10 13:55:07 2024","The main experiment item","no","fmri_experiment_final.osexp","C:\TASKS\CNC\fCourse2024_Ctrack\cognition","no","mono","no","24","no","black","no","yes","768","Google_1_Lorraine Byrd_9_oval.jpg","1200","psycho","25","25","9","C:/TASKS/CNC/fCourse2024_Ctrack/cognition/subject-3037.csv","psycho","Lentiform Loewenfeld","3.3.12","Google_1_Irene Dow_11_oval.jpg","0","1","1","1","1","1","1","NA","814.0006000030553","12465.058499990846","101628.92190000275","15275.290800011135","5805.195400011144","376.07430000207387","NA","814.0006000030553","18859.73749999539","1","5","2","psycho","1024","2","48000","-16","experiment","3037","odd","277818.98229999933","276608.26429999724","NA","190075.77769999625","NA","NA","NA","NA","154918.18809999677","NA","3132.7939000038896","278328.05240000016","275597.56959999504","104781.51420000358","3140.6405000016093","155931.1774999951","117258.333699996","152188.57610000123","154530.41849999863","153197.6108999952","153810.63219999487","NA","154320.1335000049","154530.34969999862","279452.76600000216","123063.84170000092","152177.19919999945","278638.26659999904","278638.33659999364","275585.76610000455","171215.70390000124","171215.6485000014","Face Interval Estimation","0","38941.562000021804","37","no","680"
"1","NA","1","undefined","undefined","1035.7121473689883","1035.7121473689883","#ADADAD","psycho","psycho","psycho","undefined","undefined","undefined","undefined","undefined","undefined","undefined","undefined","26","26","5","0","0","0","0","0","0","0","0","26","26","0","0","0","0","9","9","9","9","NA","9","9","29","0","9","26","26","26","3","0","Wed Jan 10 13:55:07 2024","The main experiment item","no","fmri_experiment_final.osexp","C:\TASKS\CNC\fCourse2024_Ctrack\cognition","no","mono","no","24","no","black","no","yes","768","Google_1_Sheryl Oneil_18_oval.jpg","800","psycho","26","26","9","C:/TASKS/CNC/fCourse2024_Ctrack/cognition/subject-3037.csv","psycho","Lentiform Loewenfeld","3.3.12","Google_1_Sheryl Oneil_18_oval.jpg","0","1","1","1","1","1","1","NA","415.49959999974817","12465.058499990846","101628.92190000275","15275.290800011135","5805.195400011144","376.07430000207387","NA","415.49959999974817","18859.73749999539","1","5","2","psycho","1024","2","48000","-16","experiment","3037","odd","281341.35040000547","280528.7684000068","NA","190075.77769999625","NA","NA","NA","NA","154918.18809999677","NA","3132.7939000038896","281851.719600003","279518.4875999985","104781.51420000358","3140.6405000016093","155931.1774999951","117258.333699996","152188.57610000123","154530.41849999863","153197.6108999952","153810.63219999487","NA","154320.1335000049","154530.34969999862","282577.86799999303","123063.84170000092","152177.19919999945","282161.7425000004","282161.8146999972","279504.5800999942","171215.70390000124","171215.6485000014","Face Interval Estimation","0","39357.06160002155","38","no","680"
"0","NA","0","undefined","undefined","1025.1146230775003","1025.1146230775003","#ADADAD","psycho","psycho","psycho","undefined","undefined","undefined","undefined","undefined","undefined","undefined","undefined","27","27","5","0","0","0","0","0","0","0","0","27","27","0","0","0","0","9","9","9","9","NA","9","9","30","0","9","27","27","27","3","0","Wed Jan 10 13:55:07 2024","The main experiment item","no","fmri_experiment_final.osexp","C:\TASKS\CNC\fCourse2024_Ctrack\cognition","no","mono","no","24","no","black","no","yes","768","Google_1_Alice Pryor_9_oval.jpg","1000","psycho","27","27","9","C:/TASKS/CNC/fCourse2024_Ctrack/cognition/subject-3037.csv","psycho","Lentiform Loewenfeld","3.3.12","Google_1_Ann Silvey_3_oval.jpg","0","1","1","1","1","1","1","NA","622.4087000009604","12465.058499990846","101628.92190000275","15275.290800011135","5805.195400011144","376.07430000207387","NA","622.4087000009604","18859.73749999539","1","5","2","psycho","1024","2","48000","-16","experiment","3037","odd","284661.5881000034","283649.73160000227","NA","190075.77769999625","NA","NA","NA","NA","154918.18809999677","NA","3132.7939000038896","285170.94460000226","282638.24050000403","104781.51420000358","3140.6405000016093","155931.1774999951","117258.333699996","152188.57610000123","154530.41849999863","153197.6108999952","153810.63219999487","NA","154320.1335000049","154530.34969999862","286105.7148999971","123063.84170000092","152177.19919999945","285482.7750999975","285482.845999999","282626.77489999624","171215.70390000124","171215.6485000014","Face Interval Estimation","0","39979.47030002251","39","no","680"
"0","NA","1","undefined","undefined","1011.2498275007965","1011.2498275007965","#ADADAD","psycho","psycho","psycho","undefined","undefined","undefined","undefined","undefined","undefined","undefined","undefined","28","28","5","0","0","0","0","0","0","0","0","28","28","0","0","0","0","9","9","9","9","NA","9","9","31","0","9","28","28","28","3","0","Wed Jan 10 13:55:07 2024","The main experiment item","no","fmri_experiment_final.osexp","C:\TASKS\CNC\fCourse2024_Ctrack\cognition","no","mono","no","24","no","black","no","yes","768","Google_1_Howard Matthews_5_oval.jpg","1000","psycho","28","28","9","C:/TASKS/CNC/fCourse2024_Ctrack/cognition/subject-3037.csv","psycho","Lentiform Loewenfeld","3.3.12","Google_1_Howard Matthews_5_oval.jpg","0","1","1","1","1","1","1","NA","470.52280000934843","12465.058499990846","101628.92190000275","15275.290800011135","5805.195400011144","376.07430000207387","NA","470.52280000934843","18859.73749999539","1","5","2","psycho","1024","2","48000","-16","experiment","3037","odd","288189.51850000303","287179.53500000294","NA","190075.77769999625","NA","NA","NA","NA","154918.18809999677","NA","3132.7939000038896","288701.67819999915","286169.05620000034","104781.51420000358","3140.6405000016093","155931.1774999951","117258.333699996","152188.57610000123","154530.41849999863","153197.6108999952","153810.63219999487","NA","154320.1335000049","154530.34969999862","289481.7827999941","123063.84170000092","152177.19919999945","289010.73039999756","289010.7990999968","286155.7991000009","171215.70390000124","171215.6485000014","Face Interval Estimation","0","40449.99310003186","40","no","680"
"0","NA","0","undefined","undefined","1004.0639390251116","1004.0639390251116","#ADADAD","psycho","psycho","psycho","undefined","undefined","undefined","undefined","undefined","undefined","undefined","undefined","29","29","5","0","0","0","0","0","0","0","0","29","29","0","0","0","0","9","9","9","9","NA","9","9","32","0","9","29","29","29","3","0","Wed Jan 10 13:55:07 2024","The main experiment item","no","fmri_experiment_final.osexp","C:\TASKS\CNC\fCourse2024_Ctrack\cognition","no","mono","no","24","no","black","no","yes","768","Google_1_Mike Holton_15_oval.jpg","1000","psycho","29","29","9","C:/TASKS/CNC/fCourse2024_Ctrack/cognition/subject-3037.csv","psycho","Lentiform Loewenfeld","3.3.12","Google_1_Cindy Mcdougald_11_oval.jpg","0","1","1","1","1","1","1","NA","716.6283999977168","12465.058499990846","101628.92190000275","15275.290800011135","5805.195400011144","376.07430000207387","NA","716.6283999977168","18859.73749999539","1","5","2","psycho","1024","2","48000","-16","experiment","3037","odd","291567.08900000376","290554.0461000055","NA","190075.77769999625","NA","NA","NA","NA","154918.18809999677","NA","3132.7939000038896","292076.12840000365","289542.841699993","104781.51420000358","3140.6405000016093","155931.1774999951","117258.333699996","152188.57610000123","154530.41849999863","153197.6108999952","153810.63219999487","NA","154320.1335000049","154530.34969999862","293103.87320000154","123063.84170000092","152177.19919999945","292386.5930000029","292386.66889999877","289531.8671999994","171215.70390000124","171215.6485000014","Face Interval Estimation","0","41166.62150002958","41","no","680"
"0","NA","1","undefined","undefined","997.6971880958964","997.6971880958964","#ADADAD","psycho","psycho","psycho","undefined","undefined","undefined","undefined","undefined","undefined","undefined","undefined","30","30","5","0","0","0","0","0","0","0","0","30","30","0","0","0","0","9","9","9","9","NA","9","9","33","0","9","30","30","30","3","0","Wed Jan 10 13:55:07 2024","The main experiment item","no","fmri_experiment_final.osexp","C:\TASKS\CNC\fCourse2024_Ctrack\cognition","no","mono","no","24","no","black","no","yes","768","Google_1_Stanley Guzman_1_oval.jpg","800","psycho","30","30","9","C:/TASKS/CNC/fCourse2024_Ctrack/cognition/subject-3037.csv","psycho","Lentiform Loewenfeld","3.3.12","Google_1_Stanley Guzman_1_oval.jpg","0","1","1","1","1","1","1","NA","736.6603999980725","12465.058499990846","101628.92190000275","15275.290800011135","5805.195400011144","376.07430000207387","NA","736.6603999980725","18859.73749999539","1","5","2","psycho","1024","2","48000","-16","experiment","3037","odd","294990.68790000456","294177.522900005","NA","190075.77769999625","NA","NA","NA","NA","154918.18809999677","NA","3132.7939000038896","295503.005999999","293168.948999999","104781.51420000358","3140.6405000016093","155931.1774999951","117258.333699996","152188.57610000123","154530.41849999863","153197.6108999952","153810.63219999487","NA","154320.1335000049","154530.34969999862","296550.69150000054","123063.84170000092","152177.19919999945","295813.5367000068","295813.6024999985","293155.1344000036","171215.70390000124","171215.6485000014","Face Interval Estimation","0","41903.28190002765","42","no","680"
"1","NA","0","undefined","undefined","984.7084279077366","984.7084279077366","#ADADAD","psycho","psycho","psycho","undefined","undefined","undefined","undefined","undefined","undefined","undefined","undefined","31","31","5","0","0","0","0","0","0","0","0","31","31","0","0","0","0","9","9","9","9","NA","9","9","34","0","9","31","31","31","3","0","Wed Jan 10 13:55:07 2024","The main experiment item","no","fmri_experiment_final.osexp","C:\TASKS\CNC\fCourse2024_Ctrack\cognition","no","mono","no","24","no","black","no","yes","768","Google_1_Harold Gravitt_1_oval.jpg","600","psycho","31","31","9","C:/TASKS/CNC/fCourse2024_Ctrack/cognition/subject-3037.csv","psycho","Lentiform Loewenfeld","3.3.12","Google_1_Viola Sorrell_9_oval.jpg","0","1","1","1","1","1","1","NA","439.1805000050226","12465.058499990846","101628.92190000275","15275.290800011135","5805.195400011144","376.07430000207387","NA","439.1805000050226","18859.73749999539","1","5","2","psycho","1024","2","48000","-16","experiment","3037","odd","298234.7138000041","297623.7137999997","NA","190075.77769999625","NA","NA","NA","NA","154918.18809999677","NA","3132.7939000038896","298744.5027999929","296612.9515000066","104781.51420000358","3140.6405000016093","155931.1774999951","117258.333699996","152188.57610000123","154530.41849999863","153197.6108999952","153810.63219999487","NA","154320.1335000049","154530.34969999862","299495.7831000065","123063.84170000092","152177.19919999945","299056.05660000583","299056.13019999873","296600.792199999","171215.70390000124","171215.6485000014","Face Interval Estimation","0","42342.46240003267","43","no","680"
"1","NA","0","undefined","undefined","4345.523306818822","4345.523306818822","#ADADAD","psycho","psycho","psycho","undefined","undefined","undefined","undefined","undefined","undefined","undefined","undefined","31","31","5","0","0","0","0","0","0","0","0","31","31","0","0","0","0","9","9","9","9","NA","9","9","34","0","9","31","31","31","3","0","Wed Jan 10 13:55:07 2024","The main experiment item","no","fmri_experiment_final.osexp","C:\TASKS\CNC\fCourse2024_Ctrack\cognition","no","mono","no","24","no","black","no","yes","768","Google_1_Harold Gravitt_1_oval.jpg","600","psycho","31","31","9","C:/TASKS/CNC/fCourse2024_Ctrack/cognition/subject-3037.csv","psycho","Lentiform Loewenfeld","3.3.12","Google_1_Viola Sorrell_9_oval.jpg","0","5","1","1","1","1","1","NA","148860.5630999955","12465.058499990846","101628.92190000275","15275.290800011135","5805.195400011144","376.07430000207387","NA","439.1805000050226","148860.5630999955","1","5","2","psycho","1024","2","48000","-16","experiment","3037","odd","298234.7138000041","297623.7137999997","299509.2505999928","190075.77769999625","NA","NA","NA","NA","154918.18809999677","NA","3132.7939000038896","298744.5027999929","296612.9515000066","104781.51420000358","3140.6405000016093","155931.1774999951","117258.333699996","152188.57610000123","154530.41849999863","153197.6108999952","153810.63219999487","NA","154320.1335000049","154530.34969999862","320076.73339999747","123063.84170000092","152177.19919999945","299056.05660000583","299056.13019999873","296600.792199999","171215.70390000124","171215.6485000014","Face Interval Estimation","0","191203.02550002816","44","no","680"
"0","NA","1","undefined","undefined","4268.028817778557","4268.028817778557","#ADADAD","psycho","psycho","psycho","undefined","undefined","undefined","undefined","undefined","undefined","undefined","undefined","32","32","5","0","0","0","0","0","0","0","0","32","32","0","0","0","0","9","9","9","9","NA","9","9","35","0","9","32","32","32","3","0","Wed Jan 10 13:55:07 2024","The main experiment item","no","fmri_experiment_final.osexp","C:\TASKS\CNC\fCourse2024_Ctrack\cognition","no","mono","no","24","no","black","no","yes","768","Google_1_Roy Bieber_7_oval.jpg","1200","psycho","0","31","9","C:/TASKS/CNC/fCourse2024_Ctrack/cognition/subject-3037.csv","psycho","Lentiform Loewenfeld","3.3.12","Google_1_Roy Bieber_7_oval.jpg","0","1","1","1","1","1","1","NA","858.2713000068907","12465.058499990846","101628.92190000275","15275.290800011135","5805.195400011144","376.07430000207387","NA","858.2713000068907","148860.5630999955","1","5","2","psycho","1024","2","48000","-16","experiment","3037","odd","322357.7049000014","321146.5504999942","299509.2505999928","190075.77769999625","320077.8769000026","NA","NA","NA","154918.18809999677","NA","3132.7939000038896","322918.06050000014","320136.09250000445","104781.51420000358","3140.6405000016093","155931.1774999951","117258.333699996","152188.57610000123","154530.41849999863","153197.6108999952","153810.63219999487","NA","154320.1335000049","154530.34969999862","324089.2890999967","123063.84170000092","152177.19919999945","323229.8637000058","323229.9541999964","320124.986099996","171215.70390000124","171215.6485000014","Face Interval Estimation","0","192061.29680003505","45","no","680"
"1","NA","0","undefined","undefined","4182.444752174691","4182.444752174691","#ADADAD","psycho","psycho","psycho","undefined","undefined","undefined","undefined","undefined","undefined","undefined","undefined","33","33","5","0","0","0","0","0","0","0","0","33","33","0","0","0","0","9","9","9","9","NA","9","9","36","0","9","33","33","33","3","0","Wed Jan 10 13:55:07 2024","The main experiment item","no","fmri_experiment_final.osexp","C:\TASKS\CNC\fCourse2024_Ctrack\cognition","no","mono","no","24","no","black","no","yes","768","Google_1_Jonathan Marek_5_oval.jpg","600","psycho","1","31","9","C:/TASKS/CNC/fCourse2024_Ctrack/cognition/subject-3037.csv","psycho","Lentiform Loewenfeld","3.3.12","Google_1_Barbara Zimmerman_2_oval.jpg","0","1","1","1","1","1","1","NA","331.16180000070017","12465.058499990846","101628.92190000275","15275.290800011135","5805.195400011144","376.07430000207387","NA","331.16180000070017","148860.5630999955","1","5","2","psycho","1024","2","48000","-16","experiment","3037","odd","325772.4823000026","325162.7639000071","299509.2505999928","190075.77769999625","320077.8769000026","NA","NA","NA","154918.18809999677","NA","3132.7939000038896","326283.5933000024","324151.39729999646","104781.51420000358","3140.6405000016093","155931.1774999951","117258.333699996","152188.57610000123","154530.41849999863","153197.6108999952","153810.63219999487","NA","154320.1335000049","154530.34969999862","326925.7737000007","123063.84170000092","152177.19919999945","326594.05060000427","326594.1234000056","324139.4578000036","171215.70390000124","171215.6485000014","Face Interval Estimation","0","192392.45860003575","46","no","680"
"0","NA","0","undefined","undefined","4100.139685107043","4100.139685107043","#ADADAD","psycho","psycho","psycho","undefined","undefined","undefined","undefined","undefined","undefined","undefined","undefined","34","34","5","0","0","0","0","0","0","0","0","34","34","0","0","0","0","9","9","9","9","NA","9","9","37","0","9","34","34","34","3","0","Wed Jan 10 13:55:07 2024","The main experiment item","no","fmri_experiment_final.osexp","C:\TASKS\CNC\fCourse2024_Ctrack\cognition","no","mono","no","24","no","black","no","yes","768","Google_1_Paula Faber_15_oval.jpg","600","psycho","2","31","9","C:/TASKS/CNC/fCourse2024_Ctrack/cognition/subject-3037.csv","psycho","Lentiform Loewenfeld","3.3.12","Google_1_Jeffery Rosenberg_18_oval.jpg","0","1","1","1","1","1","1","NA","314.10659999528434","12465.058499990846","101628.92190000275","15275.290800011135","5805.195400011144","376.07430000207387","NA","314.10659999528434","148860.5630999955","1","5","2","psycho","1024","2","48000","-16","experiment","3037","odd","328609.0530999936","327998.2900000032","299509.2505999928","190075.77769999625","320077.8769000026","NA","NA","NA","154918.18809999677","NA","3132.7939000038896","329119.16109999584","326986.54389999865","104781.51420000358","3140.6405000016093","155931.1774999951","117258.333699996","152188.57610000123","154530.41849999863","153197.6108999952","153810.63219999487","NA","154320.1335000049","154530.34969999862","329744.71410000115","123063.84170000092","152177.19919999945","329430.08279999776","329430.1517999993","326974.5290999999","171215.70390000124","171215.6485000014","Face Interval Estimation","0","192706.56520003104","47","no","680"
"1","NA","1","undefined","undefined","4030.760164583929","4030.760164583929","#ADADAD","psycho","psycho","psycho","undefined","undefined","undefined","undefined","undefined","undefined","undefined","undefined","35","35","5","0","0","0","0","0","0","0","0","35","35","0","0","0","0","9","9","9","9","NA","9","9","38","0","9","35","35","35","3","0","Wed Jan 10 13:55:07 2024","The main experiment item","no","fmri_experiment_final.osexp","C:\TASKS\CNC\fCourse2024_Ctrack\cognition","no","mono","no","24","no","black","no","yes","768","Google_1_Janie Butcher_3_oval.jpg","1200","psycho","3","31","9","C:/TASKS/CNC/fCourse2024_Ctrack/cognition/subject-3037.csv","psycho","Lentiform Loewenfeld","3.3.12","Google_1_Janie Butcher_3_oval.jpg","0","1","1","1","1","1","1","NA","769.9226999975508","12465.058499990846","101628.92190000275","15275.290800011135","5805.195400011144","376.07430000207387","NA","769.9226999975508","148860.5630999955","1","5","2","psycho","1024","2","48000","-16","experiment","3037","odd","332028.82550000504","330817.1733000054","299509.2505999928","190075.77769999625","320077.8769000026","NA","NA","NA","154918.18809999677","NA","3132.7939000038896","332538.57750000316","329804.6495000017","104781.51420000358","3140.6405000016093","155931.1774999951","117258.333699996","152188.57610000123","154530.41849999863","153197.6108999952","153810.63219999487","NA","154320.1335000049","154530.34969999862","333620.8082999947","123063.84170000092","152177.19919999945","332850.2587999974","332850.331499998","329793.2269000012","171215.70390000124","171215.6485000014","Face Interval Estimation","0","193476.4879000286","48","no","680"
"0","NA","0","undefined","undefined","3957.27761632707","3957.27761632707","#ADADAD","psycho","psycho","psycho","undefined","undefined","undefined","undefined","undefined","undefined","undefined","undefined","36","36","5","0","0","0","0","0","0","0","0","36","36","0","0","0","0","9","9","9","9","NA","9","9","39","0","9","36","36","36","3","0","Wed Jan 10 13:55:07 2024","The main experiment item","no","fmri_experiment_final.osexp","C:\TASKS\CNC\fCourse2024_Ctrack\cognition","no","mono","no","24","no","black","no","yes","768","Alan_Gamerson_7_oval.jpg","600","psycho","4","31","9","C:/TASKS/CNC/fCourse2024_Ctrack/cognition/subject-3037.csv","psycho","Lentiform Loewenfeld","3.3.12","Google_1_David Prosser_18_oval.jpg","0","1","1","1","1","1","1","NA","430.11529999785125","12465.058499990846","101628.92190000275","15275.290800011135","5805.195400011144","376.07430000207387","NA","430.11529999785125","148860.5630999955","1","5","2","psycho","1024","2","48000","-16","experiment","3037","odd","335305.3072000039","334694.8942000017","299509.2505999928","190075.77769999625","320077.8769000026","NA","NA","NA","154918.18809999677","NA","3132.7939000038896","335816.2141000066","333684.21469999885","104781.51420000358","3140.6405000016093","155931.1774999951","117258.333699996","152188.57610000123","154530.41849999863","153197.6108999952","153810.63219999487","NA","154320.1335000049","154530.34969999862","336557.68030000036","123063.84170000092","152177.19919999945","336127.05650000134","336127.12360000296","333670.4869999958","171215.70390000124","171215.6485000014","Face Interval Estimation","0","193906.60320002644","49","no","680"
"0","NA","1","undefined","undefined","3884.6476320005604","3884.6476320005604","#ADADAD","psycho","psycho","psycho","undefined","undefined","undefined","undefined","undefined","undefined","undefined","undefined","37","37","5","0","0","0","0","0","0","0","0","37","37","0","0","0","0","9","9","9","9","NA","9","9","40","0","9","37","37","37","3","0","Wed Jan 10 13:55:07 2024","The main experiment item","no","fmri_experiment_final.osexp","C:\TASKS\CNC\fCourse2024_Ctrack\cognition","no","mono","no","24","no","black","no","yes","768","Google_1_Larry Atwater_3_oval.jpg","600","psycho","5","31","9","C:/TASKS/CNC/fCourse2024_Ctrack/cognition/subject-3037.csv","psycho","Lentiform Loewenfeld","3.3.12","Google_1_Larry Atwater_3_oval.jpg","0","1","1","1","1","1","1","NA","325.77840000158176","12465.058499990846","101628.92190000275","15275.290800011135","5805.195400011144","376.07430000207387","NA","325.77840000158176","148860.5630999955","1","5","2","psycho","1024","2","48000","-16","experiment","3037","odd","338245.3843999974","337632.8418000048","299509.2505999928","190075.77769999625","320077.8769000026","NA","NA","NA","154918.18809999677","NA","3132.7939000038896","338756.424399995","336622.64519999735","104781.51420000358","3140.6405000016093","155931.1774999951","117258.333699996","152188.57610000123","154530.41849999863","153197.6108999952","153810.63219999487","NA","154320.1335000049","154530.34969999862","339392.717900002","123063.84170000092","152177.19919999945","339066.39750000613","339066.46469999396","336609.87329999625","171215.70390000124","171215.6485000014","Face Interval Estimation","0","194232.38160002802","50","no","680"
"1","NA","1","undefined","undefined","3823.838437255415","3823.838437255415","#ADADAD","psycho","psycho","psycho","undefined","undefined","undefined","undefined","undefined","undefined","undefined","undefined","38","38","5","0","0","0","0","0","0","0","0","38","38","0","0","0","0","9","9","9","9","NA","9","9","41","0","9","38","38","38","3","0","Wed Jan 10 13:55:07 2024","The main experiment item","no","fmri_experiment_final.osexp","C:\TASKS\CNC\fCourse2024_Ctrack\cognition","no","mono","no","24","no","black","no","yes","768","Google_1_Steve Moyers_19_oval.jpg","1200","psycho","6","31","9","C:/TASKS/CNC/fCourse2024_Ctrack/cognition/subject-3037.csv","psycho","Lentiform Loewenfeld","3.3.12","Google_1_Steve Moyers_19_oval.jpg","0","1","1","1","1","1","1","NA","783.3786999981385","12465.058499990846","101628.92190000275","15275.290800011135","5805.195400011144","376.07430000207387","NA","783.3786999981385","148860.5630999955","1","5","2","psycho","1024","2","48000","-16","experiment","3037","odd","341677.02040000586","340465.03289999964","299509.2505999928","190075.77769999625","320077.8769000026","NA","NA","NA","154918.18809999677","NA","3132.7939000038896","342185.8007999981","339454.93209999404","104781.51420000358","3140.6405000016093","155931.1774999951","117258.333699996","152188.57610000123","154530.41849999863","153197.6108999952","153810.63219999487","NA","154320.1335000049","154530.34969999862","343280.8379000053","123063.84170000092","152177.19919999945","342496.7975000036","342496.8700000027","339442.6778000052","171215.70390000124","171215.6485000014","Face Interval Estimation","0","195015.76030002616","51","no","680"
"1","NA","0","undefined","undefined","3768.7812846158454","3768.7812846158454","#ADADAD","psycho","psycho","psycho","undefined","undefined","undefined","undefined","undefined","undefined","undefined","undefined","39","39","5","0","0","0","0","0","0","0","0","39","39","0","0","0","0","9","9","9","9","NA","9","9","42","0","9","39","39","39","3","0","Wed Jan 10 13:55:07 2024","The main experiment item","no","fmri_experiment_final.osexp","C:\TASKS\CNC\fCourse2024_Ctrack\cognition","no","mono","no","24","no","black","no","yes","768","Google_1_Margaret Wilkerson_3_oval.jpg","800","psycho","7","31","9","C:/TASKS/CNC/fCourse2024_Ctrack/cognition/subject-3037.csv","psycho","Lentiform Loewenfeld","3.3.12","Google_1_Shawn Walling_3_oval.jpg","0","1","1","1","1","1","1","NA","960.8664999977918","12465.058499990846","101628.92190000275","15275.290800011135","5805.195400011144","376.07430000207387","NA","960.8664999977918","148860.5630999955","1","5","2","psycho","1024","2","48000","-16","experiment","3037","odd","345165.9972000052","344354.6594000072","299509.2505999928","190075.77769999625","320077.8769000026","NA","NA","NA","154918.18809999677","NA","3132.7939000038896","345678.0820999993","343345.7605000003","104781.51420000358","3140.6405000016093","155931.1774999951","117258.333699996","152188.57610000123","154530.41849999863","153197.6108999952","153810.63219999487","NA","154320.1335000049","154530.34969999862","346949.7413000063","123063.84170000092","152177.19919999945","345988.29940000724","345988.37469999853","343332.7309000015","171215.70390000124","171215.6485000014","Face Interval Estimation","0","195976.62680002395","52","no","680"
"0","NA","1","undefined","undefined","3704.881850943872","3704.881850943872","#ADADAD","psycho","psycho","psycho","undefined","undefined","undefined","undefined","undefined","undefined","undefined","undefined","40","40","5","0","0","0","0","0","0","0","0","40","40","0","0","0","0","9","9","9","9","NA","9","9","43","0","9","40","40","40","3","0","Wed Jan 10 13:55:07 2024","The main experiment item","no","fmri_experiment_final.osexp","C:\TASKS\CNC\fCourse2024_Ctrack\cognition","no","mono","no","24","no","black","no","yes","768","Google_1_Jerry Keane_3_oval.jpg","1000","psycho","8","31","9","C:/TASKS/CNC/fCourse2024_Ctrack/cognition/subject-3037.csv","psycho","Lentiform Loewenfeld","3.3.12","Google_1_Jerry Keane_3_oval.jpg","0","1","1","1","1","1","1","NA","382.11130000127014","12465.058499990846","101628.92190000275","15275.290800011135","5805.195400011144","376.07430000207387","NA","382.11130000127014","148860.5630999955","1","5","2","psycho","1024","2","48000","-16","experiment","3037","odd","349034.0423000016","348022.6706999965","299509.2505999928","190075.77769999625","320077.8769000026","NA","NA","NA","154918.18809999677","NA","3132.7939000038896","349543.7168000062","347013.5971999989","104781.51420000358","3140.6405000016093","155931.1774999951","117258.333699996","152188.57610000123","154530.41849999863","153197.6108999952","153810.63219999487","NA","154320.1335000049","154530.34969999862","350235.63310000463","123063.84170000092","152177.19919999945","349853.0000000028","349853.0691000051","346999.8750999948","171215.70390000124","171215.6485000014","Face Interval Estimation","0","196358.73810002522","53","no","680"
"0","NA","0","undefined","undefined","3642.6262574079574","3642.6262574079574","#ADADAD","psycho","psycho","psycho","undefined","undefined","undefined","undefined","undefined","undefined","undefined","undefined","41","41","5","0","0","0","0","0","0","0","0","41","41","0","0","0","0","9","9","9","9","NA","9","9","44","0","9","41","41","41","3","0","Wed Jan 10 13:55:07 2024","The main experiment item","no","fmri_experiment_final.osexp","C:\TASKS\CNC\fCourse2024_Ctrack\cognition","no","mono","no","24","no","black","no","yes","768","Google_1_Sara Claytor_7_oval.jpg","600","psycho","9","31","9","C:/TASKS/CNC/fCourse2024_Ctrack/cognition/subject-3037.csv","psycho","Lentiform Loewenfeld","3.3.12","Google_1_Carolyn Kiley_3_oval.jpg","0","1","1","1","1","1","1","NA","343.0798000044888","12465.058499990846","101628.92190000275","15275.290800011135","5805.195400011144","376.07430000207387","NA","343.0798000044888","148860.5630999955","1","5","2","psycho","1024","2","48000","-16","experiment","3037","odd","351919.56959999516","351307.9641999939","299509.2505999928","190075.77769999625","320077.8769000026","NA","NA","NA","154918.18809999677","NA","3132.7939000038896","352431.7478000012","350299.339300007","104781.51420000358","3140.6405000016093","155931.1774999951","117258.333699996","152188.57610000123","154530.41849999863","153197.6108999952","153810.63219999487","NA","154320.1335000049","154530.34969999862","353085.71929999744","123063.84170000092","152177.19919999945","352742.07720000413","352742.14709999796","350285.2363999991","171215.70390000124","171215.6485000014","Face Interval Estimation","0","196701.8179000297","54","no","680"
"1","NA","1","undefined","undefined","3582.0134145459056","3582.0134145459056","#ADADAD","psycho","psycho","psycho","undefined","undefined","undefined","undefined","undefined","undefined","undefined","undefined","42","42","5","0","0","0","0","0","0","0","0","42","42","0","0","0","0","9","9","9","9","NA","9","9","45","0","9","42","42","42","3","0","Wed Jan 10 13:55:07 2024","The main experiment item","no","fmri_experiment_final.osexp","C:\TASKS\CNC\fCourse2024_Ctrack\cognition","no","mono","no","24","no","black","no","yes","768","Google_1_Melissa Cushing_19_oval.jpg","1000","psycho","10","31","9","C:/TASKS/CNC/fCourse2024_Ctrack/cognition/subject-3037.csv","psycho","Lentiform Loewenfeld","3.3.12","Google_1_Melissa Cushing_19_oval.jpg","0","1","1","1","1","1","1","NA","308.9198999950895","12465.058499990846","101628.92190000275","15275.290800011135","5805.195400011144","376.07430000207387","NA","308.9198999950895","148860.5630999955","1","5","2","psycho","1024","2","48000","-16","experiment","3037","odd","355170.77810000046","354158.31060000346","299509.2505999928","190075.77769999625","320077.8769000026","NA","NA","NA","154918.18809999677","NA","3132.7939000038896","355682.53900000127","353149.384999997","104781.51420000358","3140.6405000016093","155931.1774999951","117258.333699996","152188.57610000123","154530.41849999863","153197.6108999952","153810.63219999487","NA","154320.1335000049","154530.34969999862","356301.62470000505","123063.84170000092","152177.19919999945","355992.1769000066","355992.24839999806","353135.6519999972","171215.70390000124","171215.6485000014","Face Interval Estimation","0","197010.7378000248","55","no","680"
"1","NA","0","undefined","undefined","3524.6921339289006","3524.6921339289006","#ADADAD","psycho","psycho","psycho","undefined","undefined","undefined","undefined","undefined","undefined","undefined","undefined","43","43","5","0","0","0","0","0","0","0","0","43","43","0","0","0","0","9","9","9","9","NA","9","9","46","0","9","43","43","43","3","0","Wed Jan 10 13:55:07 2024","The main experiment item","no","fmri_experiment_final.osexp","C:\TASKS\CNC\fCourse2024_Ctrack\cognition","no","mono","no","24","no","black","no","yes","768","Google_1_Joshua Guido_13_oval.jpg","600","psycho","11","31","9","C:/TASKS/CNC/fCourse2024_Ctrack/cognition/subject-3037.csv","psycho","Lentiform Loewenfeld","3.3.12","Google_1_Peter Mcclary_13_oval.jpg","0","1","1","1","1","1","1","NA","372.0216999936383","12465.058499990846","101628.92190000275","15275.290800011135","5805.195400011144","376.07430000207387","NA","372.0216999936383","148860.5630999955","1","5","2","psycho","1024","2","48000","-16","experiment","3037","odd","357997.42299999343","357386.3842999999","299509.2505999928","190075.77769999625","320077.8769000026","NA","NA","NA","154918.18809999677","NA","3132.7939000038896","358506.78330000665","356375.80189999426","104781.51420000358","3140.6405000016093","155931.1774999951","117258.333699996","152188.57610000123","154530.41849999863","153197.6108999952","153810.63219999487","NA","154320.1335000049","154530.34969999862","359188.7287999998","123063.84170000092","152177.19919999945","358816.1254000006","358816.19019999926","356364.12699999346","171215.70390000124","171215.6485000014","Face Interval Estimation","0","197382.75950001844","56","no","680"
"0","NA","1","undefined","undefined","3473.479191228347","3473.479191228347","#ADADAD","psycho","psycho","psycho","undefined","undefined","undefined","undefined","undefined","undefined","undefined","undefined","44","44","5","0","0","0","0","0","0","0","0","44","44","0","0","0","0","9","9","9","9","NA","9","9","47","0","9","44","44","44","3","0","Wed Jan 10 13:55:07 2024","The main experiment item","no","fmri_experiment_final.osexp","C:\TASKS\CNC\fCourse2024_Ctrack\cognition","no","mono","no","24","no","black","no","yes","768","Google_1_Anthony Riddell_7_oval.jpg","1200","psycho","12","31","9","C:/TASKS/CNC/fCourse2024_Ctrack/cognition/subject-3037.csv","psycho","Lentiform Loewenfeld","3.3.12","Google_1_Anthony Riddell_7_oval.jpg","0","1","1","1","1","1","1","NA","605.5543999973452","12465.058499990846","101628.92190000275","15275.290800011135","5805.195400011144","376.07430000207387","NA","605.5543999973452","148860.5630999955","1","5","2","psycho","1024","2","48000","-16","experiment","3037","odd","361468.632899996","360258.2338999928","299509.2505999928","190075.77769999625","320077.8769000026","NA","NA","NA","154918.18809999677","NA","3132.7939000038896","361979.15709999506","359248.5930999974","104781.51420000358","3140.6405000016093","155931.1774999951","117258.333699996","152188.57610000123","154530.41849999863","153197.6108999952","153810.63219999487","NA","154320.1335000049","154530.34969999862","362895.7337000029","123063.84170000092","152177.19919999945","362289.6097000048","362289.6766000049","359236.79280000215","171215.70390000124","171215.6485000014","Face Interval Estimation","0","197988.31390001578","57","no","680"
"0","NA","1","undefined","undefined","3419.135977586346","3419.135977586346","#ADADAD","psycho","psycho","psycho","undefined","undefined","undefined","undefined","undefined","undefined","undefined","undefined","45","45","5","0","0","0","0","0","0","0","0","45","45","0","0","0","0","9","9","9","9","NA","9","9","48","0","9","45","45","45","3","0","Wed Jan 10 13:55:07 2024","The main experiment item","no","fmri_experiment_final.osexp","C:\TASKS\CNC\fCourse2024_Ctrack\cognition","no","mono","no","24","no","black","no","yes","768","Google_1_Victor Potter_13_oval.jpg","800","psycho","13","31","9","C:/TASKS/CNC/fCourse2024_Ctrack/cognition/subject-3037.csv","psycho","Lentiform Loewenfeld","3.3.12","Google_1_Victor Potter_13_oval.jpg","0","1","1","1","1","1","1","NA","321.57279999228194","12465.058499990846","101628.92190000275","15275.290800011135","5805.195400011144","376.07430000207387","NA","321.57279999228194","148860.5630999955","1","5","2","psycho","1024","2","48000","-16","experiment","3037","odd","364779.7857999976","363967.01700000267","299509.2505999928","190075.77769999625","320077.8769000026","NA","NA","NA","154918.18809999677","NA","3132.7939000038896","365288.61940000206","362958.14509999764","104781.51420000358","3140.6405000016093","155931.1774999951","117258.333699996","152188.57610000123","154530.41849999863","153197.6108999952","153810.63219999487","NA","154320.1335000049","154530.34969999862","365920.7338999986","123063.84170000092","152177.19919999945","365598.570400005","365598.64100000414","362945.4321999947","171215.70390000124","171215.6485000014","Face Interval Estimation","0","198309.88670000806","58","no","680"
"1","NA","1","undefined","undefined","3372.2690711864884","3372.2690711864884","#ADADAD","psycho","psycho","psycho","undefined","undefined","undefined","undefined","undefined","undefined","undefined","undefined","46","46","5","0","0","0","0","0","0","0","0","46","46","0","0","0","0","9","9","9","9","NA","9","9","49","0","9","46","46","46","3","0","Wed Jan 10 13:55:07 2024","The main experiment item","no","fmri_experiment_final.osexp","C:\TASKS\CNC\fCourse2024_Ctrack\cognition","no","mono","no","24","no","black","no","yes","768","Google_1_Gwendolyn Vance_152_oval.jpg","1200","psycho","14","31","9","C:/TASKS/CNC/fCourse2024_Ctrack/cognition/subject-3037.csv","psycho","Lentiform Loewenfeld","3.3.12","Google_1_Gwendolyn Vance_152_oval.jpg","0","1","1","1","1","1","1","NA","653.988499994739","12465.058499990846","101628.92190000275","15275.290800011135","5805.195400011144","376.07430000207387","NA","653.988499994739","148860.5630999955","1","5","2","psycho","1024","2","48000","-16","experiment","3037","odd","368206.5761999984","366996.87200000335","299509.2505999928","190075.77769999625","320077.8769000026","NA","NA","NA","154918.18809999677","NA","3132.7939000038896","368717.15300000506","365982.92569999467","104781.51420000358","3140.6405000016093","155931.1774999951","117258.333699996","152188.57610000123","154530.41849999863","153197.6108999952","153810.63219999487","NA","154320.1335000049","154530.34969999862","369682.7368999948","123063.84170000092","152177.19919999945","369028.1399999949","369028.2245999988","365971.1914000072","171215.70390000124","171215.6485000014","Face Interval Estimation","0","198963.8752000028","59","no","680"
"0","NA","1","undefined","undefined","3318.3423883335004","3318.3423883335004","#ADADAD","psycho","psycho","psycho","undefined","undefined","undefined","undefined","undefined","undefined","undefined","undefined","47","47","5","0","0","0","0","0","0","0","0","47","47","0","0","0","0","9","9","9","9","NA","9","9","50","0","9","47","47","47","3","0","Wed Jan 10 13:55:07 2024","The main experiment item","no","fmri_experiment_final.osexp","C:\TASKS\CNC\fCourse2024_Ctrack\cognition","no","mono","no","24","no","black","no","yes","768","Google_1_Arthur Featherstone_1_oval.jpg","600","psycho","15","31","9","C:/TASKS/CNC/fCourse2024_Ctrack/cognition/subject-3037.csv","psycho","Lentiform Loewenfeld","3.3.12","Google_1_Arthur Featherstone_1_oval.jpg","0","1","1","1","1","1","1","NA","136.66810000722762","12465.058499990846","101628.92190000275","15275.290800011135","5805.195400011144","376.07430000207387","NA","136.66810000722762","148860.5630999955","1","5","2","psycho","1024","2","48000","-16","experiment","3037","odd","371370.06299999484","370758.9367000037","299509.2505999928","190075.77769999625","320077.8769000026","NA","NA","NA","154918.18809999677","NA","3132.7939000038896","371882.0545000053","369749.55860000046","104781.51420000358","3140.6405000016093","155931.1774999951","117258.333699996","152188.57610000123","154530.41849999863","153197.6108999952","153810.63219999487","NA","154320.1335000049","154530.34969999862","372329.6197000018","123063.84170000092","152177.19919999945","372192.4322999985","372192.4970999971","369735.91339999984","171215.70390000124","171215.6485000014","Face Interval Estimation","0","199100.54330001003","60","no","680"
"1","NA","0","undefined","undefined","3274.987970491953","3274.987970491953","#ADADAD","psycho","psycho","psycho","undefined","undefined","undefined","undefined","undefined","undefined","undefined","undefined","48","48","5","0","0","0","0","0","0","0","0","48","48","0","0","0","0","9","9","9","9","NA","9","9","51","0","9","48","48","48","3","0","Wed Jan 10 13:55:07 2024","The main experiment item","no","fmri_experiment_final.osexp","C:\TASKS\CNC\fCourse2024_Ctrack\cognition","no","mono","no","24","no","black","no","yes","768","Google_1_George Baum_1_oval.jpg","1000","psycho","16","31","9","C:/TASKS/CNC/fCourse2024_Ctrack/cognition/subject-3037.csv","psycho","Lentiform Loewenfeld","3.3.12","Google_1_Henry Dominguez_9_oval.jpg","0","1","1","1","1","1","1","NA","673.7228999991203","12465.058499990846","101628.92190000275","15275.290800011135","5805.195400011144","376.07430000207387","NA","673.7228999991203","148860.5630999955","1","5","2","psycho","1024","2","48000","-16","experiment","3037","odd","374412.8647000034","373400.1166999951","299509.2505999928","190075.77769999625","320077.8769000026","NA","NA","NA","154918.18809999677","NA","3132.7939000038896","374921.73119999643","372389.42269999825","104781.51420000358","3140.6405000016093","155931.1774999951","117258.333699996","152188.57610000123","154530.41849999863","153197.6108999952","153810.63219999487","NA","154320.1335000049","154530.34969999862","375906.70500000124","123063.84170000092","152177.19919999945","375232.40959999384","375232.48449999664","372378.61270000576","171215.70390000124","171215.6485000014","Face Interval Estimation","0","199774.26620000915","61","no","680"
"0","NA","0","undefined","undefined","3225.2948870969235","3225.2948870969235","#ADADAD","psycho","psycho","psycho","undefined","undefined","undefined","undefined","undefined","undefined","undefined","undefined","49","49","5","0","0","0","0","0","0","0","0","49","49","0","0","0","0","9","9","9","9","NA","9","9","52","0","9","49","49","49","3","0","Wed Jan 10 13:55:07 2024","The main experiment item","no","fmri_experiment_final.osexp","C:\TASKS\CNC\fCourse2024_Ctrack\cognition","no","mono","no","24","no","black","no","yes","768","Google_1_Sara Guajardo_1_oval.jpg","600","psycho","17","31","9","C:/TASKS/CNC/fCourse2024_Ctrack/cognition/subject-3037.csv","psycho","Lentiform Loewenfeld","3.3.12","Google_1_Ramona Thornburg_1_oval.jpg","0","1","1","1","1","1","1","NA","194.01680000009947","12465.058499990846","101628.92190000275","15275.290800011135","5805.195400011144","376.07430000207387","NA","194.01680000009947","148860.5630999955","1","5","2","psycho","1024","2","48000","-16","experiment","3037","odd","377590.5472000013","376980.5550000019","299509.2505999928","190075.77769999625","320077.8769000026","NA","NA","NA","154918.18809999677","NA","3132.7939000038896","378099.8513999948","375970.3848000063","104781.51420000358","3140.6405000016093","155931.1774999951","117258.333699996","152188.57610000123","154530.41849999863","153197.6108999952","153810.63219999487","NA","154320.1335000049","154530.34969999862","378604.6761000034","123063.84170000092","152177.19919999945","378410.10170000663","378410.16749999835","375958.2877000066","171215.70390000124","171215.6485000014","Face Interval Estimation","0","199968.28300000925","62","no","680"
"1","NA","1","undefined","undefined","3178.7422111113315","3178.7422111113315","#ADADAD","psycho","psycho","psycho","undefined","undefined","undefined","undefined","undefined","undefined","undefined","undefined","50","50","5","0","0","0","0","0","0","0","0","50","50","0","0","0","0","9","9","9","9","NA","9","9","53","0","9","50","50","50","3","0","Wed Jan 10 13:55:07 2024","The main experiment item","no","fmri_experiment_final.osexp","C:\TASKS\CNC\fCourse2024_Ctrack\cognition","no","mono","no","24","no","black","no","yes","768","Google_1_Sean Revels_7_oval.jpg","600","psycho","18","31","9","C:/TASKS/CNC/fCourse2024_Ctrack/cognition/subject-3037.csv","psycho","Lentiform Loewenfeld","3.3.12","Google_1_Sean Revels_7_oval.jpg","0","1","1","1","1","1","1","NA","292.47630000463687","12465.058499990846","101628.92190000275","15275.290800011135","5805.195400011144","376.07430000207387","NA","292.47630000463687","148860.5630999955","1","5","2","psycho","1024","2","48000","-16","experiment","3037","odd","380289.70530000515","379677.59130000195","299509.2505999928","190075.77769999625","320077.8769000026","NA","NA","NA","154918.18809999677","NA","3132.7939000038896","380799.12070000137","378666.83380000177","104781.51420000358","3140.6405000016093","155931.1774999951","117258.333699996","152188.57610000123","154530.41849999863","153197.6108999952","153810.63219999487","NA","154320.1335000049","154530.34969999862","381402.7206000028","123063.84170000092","152177.19919999945","381109.6486000024","381109.7191000008","378654.55019999354","171215.70390000124","171215.6485000014","Face Interval Estimation","0","200260.7593000139","63","no","680"
"1","NA","1","undefined","undefined","3140.4128234376003","3140.4128234376003","#ADADAD","psycho","psycho","psycho","undefined","undefined","undefined","undefined","undefined","undefined","undefined","undefined","51","51","5","0","0","0","0","0","0","0","0","51","51","0","0","0","0","9","9","9","9","NA","9","9","54","0","9","51","51","51","3","0","Wed Jan 10 13:55:07 2024","The main experiment item","no","fmri_experiment_final.osexp","C:\TASKS\CNC\fCourse2024_Ctrack\cognition","no","mono","no","24","no","black","no","yes","768","Brandon_Kunkel_9_oval.jpg","1000","psycho","19","31","9","C:/TASKS/CNC/fCourse2024_Ctrack/cognition/subject-3037.csv","psycho","Lentiform Loewenfeld","3.3.12","Brandon_Kunkel_9_oval.jpg","0","1","1","1","1","1","1","NA","725.6613999925321","12465.058499990846","101628.92190000275","15275.290800011135","5805.195400011144","376.07430000207387","NA","725.6613999925321","148860.5630999955","1","5","2","psycho","1024","2","48000","-16","experiment","3037","odd","383503.0793000042","382492.7236999938","299509.2505999928","190075.77769999625","320077.8769000026","NA","NA","NA","154918.18809999677","NA","3132.7939000038896","384014.00890000514","381481.4749999932","104781.51420000358","3140.6405000016093","155931.1774999951","117258.333699996","152188.57610000123","154530.41849999863","153197.6108999952","153810.63219999487","NA","154320.1335000049","154530.34969999862","385050.7718000008","123063.84170000092","152177.19919999945","384324.4734000036","384324.54750000034","381469.33180000633","171215.70390000124","171215.6485000014","Face Interval Estimation","0","200986.42070000642","64","no","680"
"0","NA","1","undefined","undefined","3096.1788553847537","3096.1788553847537","#ADADAD","psycho","psycho","psycho","undefined","undefined","undefined","undefined","undefined","undefined","undefined","undefined","52","52","5","0","0","0","0","0","0","0","0","52","52","0","0","0","0","9","9","9","9","NA","9","9","55","0","9","52","52","52","3","0","Wed Jan 10 13:55:07 2024","The main experiment item","no","fmri_experiment_final.osexp","C:\TASKS\CNC\fCourse2024_Ctrack\cognition","no","mono","no","24","no","black","no","yes","768","Google_1_Sherri Vineyard_9_oval.jpg","600","psycho","20","31","9","C:/TASKS/CNC/fCourse2024_Ctrack/cognition/subject-3037.csv","psycho","Lentiform Loewenfeld","3.3.12","Google_1_Sherri Vineyard_9_oval.jpg","0","1","1","1","1","1","1","NA","265.2049000025727","12465.058499990846","101628.92190000275","15275.290800011135","5805.195400011144","376.07430000207387","NA","265.2049000025727","148860.5630999955","1","5","2","psycho","1024","2","48000","-16","experiment","3037","odd","386735.61750000226","386125.3466000053","299509.2505999928","190075.77769999625","320077.8769000026","NA","NA","NA","154918.18809999677","NA","3132.7939000038896","387247.10989999585","385113.9120000007","104781.51420000358","3140.6405000016093","155931.1774999951","117258.333699996","152188.57610000123","154530.41849999863","153197.6108999952","153810.63219999487","NA","154320.1335000049","154530.34969999862","387822.8115999955","123063.84170000092","152177.19919999945","387556.90359999426","387556.9773000025","385100.2850999939","171215.70390000124","171215.6485000014","Face Interval Estimation","0","201251.625600009","65","no","680"
"1","NA","0","undefined","undefined","3066.2640378787096","3066.2640378787096","#ADADAD","psycho","psycho","psycho","undefined","undefined","undefined","undefined","undefined","undefined","undefined","undefined","53","53","5","0","0","0","0","0","0","0","0","53","53","0","0","0","0","9","9","9","9","NA","9","9","56","0","9","53","53","53","3","0","Wed Jan 10 13:55:07 2024","The main experiment item","no","fmri_experiment_final.osexp","C:\TASKS\CNC\fCourse2024_Ctrack\cognition","no","mono","no","24","no","black","no","yes","768","Google_1_Stanley Easton_7_oval.jpg","1200","psycho","21","31","9","C:/TASKS/CNC/fCourse2024_Ctrack/cognition/subject-3037.csv","psycho","Lentiform Loewenfeld","3.3.12","Google_1_Sylvia Sprouse_11_oval.jpg","0","1","1","1","1","1","1","NA","1121.8008999858284","12465.058499990846","101628.92190000275","15275.290800011135","5805.195400011144","376.07430000207387","NA","1121.8008999858284","148860.5630999955","1","5","2","psycho","1024","2","48000","-16","experiment","3037","odd","390110.5375000043","388898.68769999885","299509.2505999928","190075.77769999625","320077.8769000026","NA","NA","NA","154918.18809999677","NA","3132.7939000038896","390619.52959999326","387887.9184999969","104781.51420000358","3140.6405000016093","155931.1774999951","117258.333699996","152188.57610000123","154530.41849999863","153197.6108999952","153810.63219999487","NA","154320.1335000049","154530.34969999862","392053.7122999958","123063.84170000092","152177.19919999945","390931.3034999941","390931.3702000072","387876.60249999317","171215.70390000124","171215.6485000014","Face Interval Estimation","0","202373.42649999482","66","no","680"
"1","NA","0","undefined","undefined","3027.008638806066","3027.008638806066","#ADADAD","psycho","psycho","psycho","undefined","undefined","undefined","undefined","undefined","undefined","undefined","undefined","54","54","5","0","0","0","0","0","0","0","0","54","54","0","0","0","0","9","9","9","9","NA","9","9","57","0","9","54","54","54","3","0","Wed Jan 10 13:55:07 2024","The main experiment item","no","fmri_experiment_final.osexp","C:\TASKS\CNC\fCourse2024_Ctrack\cognition","no","mono","no","24","no","black","no","yes","768","Google_1_Nicole Canada_3_oval.jpg","1000","psycho","22","31","9","C:/TASKS/CNC/fCourse2024_Ctrack/cognition/subject-3037.csv","psycho","Lentiform Loewenfeld","3.3.12","Google_1_Debra Jankowski_17_oval.jpg","0","1","1","1","1","1","1","NA","436.15230001159944","12465.058499990846","101628.92190000275","15275.290800011135","5805.195400011144","376.07430000207387","NA","436.15230001159944","148860.5630999955","1","5","2","psycho","1024","2","48000","-16","experiment","3037","odd","394137.3162999953","393127.70759999694","299509.2505999928","190075.77769999625","320077.8769000026","NA","NA","NA","154918.18809999677","NA","3132.7939000038896","394648.7769999949","392116.6893000045","104781.51420000358","3140.6405000016093","155931.1774999951","117258.333699996","152188.57610000123","154530.41849999863","153197.6108999952","153810.63219999487","NA","154320.1335000049","154530.34969999862","395395.71749999595","123063.84170000092","152177.19919999945","394958.9463000011","394959.0179999941","392104.47180000483","171215.70390000124","171215.6485000014","Face Interval Estimation","0","202809.57880000642","67","no","680"
"0","NA","0","undefined","undefined","2993.2110661765737","2993.2110661765737","#ADADAD","psycho","psycho","psycho","undefined","undefined","undefined","undefined","undefined","undefined","undefined","undefined","55","55","5","0","0","0","0","0","0","0","0","55","55","0","0","0","0","9","9","9","9","NA","9","9","58","0","9","55","55","55","3","0","Wed Jan 10 13:55:07 2024","The main experiment item","no","fmri_experiment_final.osexp","C:\TASKS\CNC\fCourse2024_Ctrack\cognition","no","mono","no","24","no","black","no","yes","768","Google_1_Kristen Barfield_15_oval.jpg","1200","psycho","23","31","9","C:/TASKS/CNC/fCourse2024_Ctrack/cognition/subject-3037.csv","psycho","Lentiform Loewenfeld","3.3.12","Adam_Koester_6_oval.jpg","0","1","1","1","1","1","1","NA","728.7737000006018","12465.058499990846","101628.92190000275","15275.290800011135","5805.195400011144","376.07430000207387","NA","728.7737000006018","148860.5630999955","1","5","2","psycho","1024","2","48000","-16","experiment","3037","odd","397678.68830000225","396467.3569000006","299509.2505999928","190075.77769999625","320077.8769000026","NA","NA","NA","154918.18809999677","NA","3132.7939000038896","398188.2575000054","395456.8818999978","104781.51420000358","3140.6405000016093","155931.1774999951","117258.333699996","152188.57610000123","154530.41849999863","153197.6108999952","153810.63219999487","NA","154320.1335000049","154530.34969999862","399228.68390000076","123063.84170000092","152177.19919999945","398499.2959999945","398499.37010000576","395445.78029999684","171215.70390000124","171215.6485000014","Face Interval Estimation","0","203538.35250000702","68","no","680"
"0","NA","0","undefined","undefined","2961.530605797357","2961.530605797357","#ADADAD","psycho","psycho","psycho","undefined","undefined","undefined","undefined","undefined","undefined","undefined","undefined","56","56","5","0","0","0","0","0","0","0","0","56","56","0","0","0","0","9","9","9","9","NA","9","9","59","0","9","56","56","56","3","0","Wed Jan 10 13:55:07 2024","The main experiment item","no","fmri_experiment_final.osexp","C:\TASKS\CNC\fCourse2024_Ctrack\cognition","no","mono","no","24","no","black","no","yes","768","Google_1_Jeffrey Watson_1_oval.jpg","1200","psycho","24","31","9","C:/TASKS/CNC/fCourse2024_Ctrack/cognition/subject-3037.csv","psycho","Lentiform Loewenfeld","3.3.12","Google_1_Rosalie May_17_oval.jpg","0","1","1","1","1","1","1","NA","807.2593000106281","12465.058499990846","101628.92190000275","15275.290800011135","5805.195400011144","376.07430000207387","NA","807.2593000106281","148860.5630999955","1","5","2","psycho","1024","2","48000","-16","experiment","3037","odd","401513.6488999997","400303.22099999466","299509.2505999928","190075.77769999625","320077.8769000026","NA","NA","NA","154918.18809999677","NA","3132.7939000038896","402055.0687000068","399292.0987999969","104781.51420000358","3140.6405000016093","155931.1774999951","117258.333699996","152188.57610000123","154530.41849999863","153197.6108999952","153810.63219999487","NA","154320.1335000049","154530.34969999862","403172.83029999817","123063.84170000092","152177.19919999945","402364.8408000008","402364.91049999313","399279.38570000697","171215.70390000124","171215.6485000014","Face Interval Estimation","0","204345.61180001765","69","no","680"
